sub trial_no group_type block_type prime target mask1 mask2 congruency key_press key_error time_error RT
16 22 LeftSmaller RTTaskExp Prime_4N Target_1N KMFHIbE bEJDCLK Congruent left correct Normal 521
16 23 LeftSmaller RTTaskExp Prime_9N Target_4A bLFJIcC jdJGkAm Incongruent right error Normal 362
16 24 LeftSmaller RTTaskExp Prime_6A Target_1A IEaDLbJ deHBkaA Incongruent left correct Normal 444
16 25 LeftSmaller RTTaskExp Prime_9N Target_1A jhbCLAa gmBfMka Incongruent left correct Normal 406
16 26 LeftSmaller RTTaskExp Prime_4N Target_4A CjAHfKg MeJAiIl Congruent right error Normal 500
16 27 LeftSmaller RTTaskExp Prime_1N Target_4A AjkICdJ kbijHhE Congruent left correct Normal 433
16 28 LeftSmaller RTTaskExp Prime_9N Target_9N IaCMAeJ KkAEjcG Congruent right correct Normal 615
16 29 LeftSmaller RTTaskExp Prime_4N Target_9A KHLfchl IJGAfjH Incongruent right correct Normal 398
16 30 LeftSmaller RTTaskExp Prime_9N Target_6A bBafgIH fcIMLJE Congruent right correct Normal 463
16 31 LeftSmaller RTTaskExp Prime_4A Target_9N jlfdEIg CEJahFL Incongruent left error Normal 408
16 32 LeftSmaller RTTaskExp Prime_1A Target_4N lBGLmeC gEfjiMG Congruent right error Normal 391
16 33 LeftSmaller RTTaskExp Prime_4N Target_4A ABlCbEa AlJdaMb Congruent left correct Normal 405
16 34 LeftSmaller RTTaskExp Prime_6A Target_1N ckHDmgd eFfmGCD Incongruent left correct Normal 460
16 35 LeftSmaller RTTaskExp Prime_6N Target_6A demgDBk EGlLBed Congruent right correct Normal 550
16 36 LeftSmaller RTTaskExp Prime_1N Target_9N JMEBGlD HAFjblm Incongruent right correct Normal 425
16 37 LeftSmaller RTTaskExp Prime_4N Target_1A MdJbcam ilJIdhA Congruent left correct Normal 419
16 38 LeftSmaller RTTaskExp Prime_6A Target_6N mKfGeIl LcFljEd Congruent left error Normal 413
16 39 LeftSmaller RTTaskExp Prime_6A Target_4A ieGhgAj gelfahm Incongruent left correct Normal 668
16 40 LeftSmaller RTTaskExp Prime_1A Target_6A kfAKaej Ffckhij Incongruent right correct Normal 463
16 41 LeftSmaller RTTaskExp Prime_4A Target_4N keIaJfE jbILKDH Congruent left correct Normal 473
16 42 LeftSmaller RTTaskExp Prime_4A Target_6N bcLCEDj HFhdfAJ Incongruent right correct Normal 467
16 43 LeftSmaller RTTaskExp Prime_1N Target_9A AELkHeg cGfHbeL Incongruent right correct Normal 406
16 44 LeftSmaller RTTaskExp Prime_9A Target_6A BkcmhfG gGlBbcJ Congruent right correct Normal 373
16 45 LeftSmaller RTTaskExp Prime_4A Target_1N mLECHgG aclAgiF Congruent left correct Normal 520
16 46 LeftSmaller RTTaskExp Prime_9A Target_1A ljcAdFm CjkdKlm Incongruent left correct Normal 584
16 47 LeftSmaller RTTaskExp Prime_4N Target_6N kFeKAId aclbgLh Incongruent right correct Normal 394
16 48 LeftSmaller RTTaskExp Prime_4N Target_4N iAMJKIg GkmhFiH Congruent left correct Normal 532
16 49 LeftSmaller RTTaskExp Prime_6A Target_6A bajIMBh geAclIi Congruent right correct Normal 380
16 50 LeftSmaller RTTaskExp Prime_4A Target_6A LlaeIGH FGAmeIg Incongruent right correct Normal 367
16 51 LeftSmaller RTTaskExp Prime_6N Target_4A BgkIjlK DfdGaLg Incongruent right error Normal 260
16 52 LeftSmaller RTTaskExp Prime_6N Target_1N dHgifcC iaGhdCH Incongruent left correct Normal 432
16 53 LeftSmaller RTTaskExp Prime_9A Target_9A CKkLcbA DjJfgih Congruent right correct Normal 408
16 54 LeftSmaller RTTaskExp Prime_1A Target_6N DAbGICd mJageHB Incongruent left error Normal 430
16 55 LeftSmaller RTTaskExp Prime_6A Target_9N LhAjglE EKBlCAJ Congruent right correct Normal 686
16 56 LeftSmaller RTTaskExp Prime_9N Target_4N baifAIF GcbHeCE Incongruent right error Normal 424
16 57 LeftSmaller RTTaskExp Prime_6N Target_9N JgbHKih idJgkGl Congruent right correct Normal 702
16 58 LeftSmaller RTTaskExp Prime_1N Target_6N GKlDFeh cLjiMDl Incongruent right correct Normal 631
16 59 LeftSmaller RTTaskExp Prime_9N Target_4A bLBAeHJ JFDHKcm Incongruent left correct Normal 541
16 60 LeftSmaller RTTaskExp Prime_6A Target_6N fJjgBAc iaMFbHD Congruent right correct Normal 474
16 61 LeftSmaller RTTaskExp Prime_6A Target_4N CmIdfja bdEieah Incongruent left correct Normal 435
16 62 LeftSmaller RTTaskExp Prime_6N Target_4N hBAMcEJ JAdbEim Incongruent right error Normal 367
16 63 LeftSmaller RTTaskExp Prime_1N Target_6A caLBmkH mKFJiCI Incongruent right correct Normal 544
16 64 LeftSmaller RTTaskExp Prime_1N Target_1A ejhcBDk DkdeGcf Congruent left correct Normal 438
16 65 LeftSmaller RTTaskExp Prime_9N Target_6N IaiCMDH HCEmDkb Congruent right correct Normal 524
16 66 LeftSmaller RTTaskExp Prime_9A Target_4A CeKlDhJ iclHfKk Incongruent left correct Normal 506
16 67 LeftSmaller RTTaskExp Prime_4A Target_1A gcMGBEA EcLkCHi Congruent right error Normal 405
16 68 LeftSmaller RTTaskExp Prime_9N Target_9A HBcLafE EIefkHK Congruent right correct Normal 431
16 69 LeftSmaller RTTaskExp Prime_1N Target_1N gMHJfmK difFbEI Congruent left correct Normal 450
16 70 LeftSmaller RTTaskExp Prime_4A Target_9N bDhilCH hmGafjK Incongruent right correct Normal 546
16 71 LeftSmaller RTTaskExp Prime_6N Target_4A jBfkeFJ DiacBmG Incongruent left correct Normal 411
16 72 LeftSmaller RTTaskExp Prime_4A Target_9A BHCAfmM EBDCFHk Incongruent right correct Normal 289
16 73 LeftSmaller RTTaskExp Prime_1A Target_4A ekFalHM leaCLfB Congruent left correct Normal 424
16 74 LeftSmaller RTTaskExp Prime_6N Target_4N iEBJjGM MKIfmAj Incongruent right error Normal 374
16 75 LeftSmaller RTTaskExp Prime_9A Target_1N KHIbMge KFgLlIc Incongruent left correct Normal 454
16 76 LeftSmaller RTTaskExp Prime_6N Target_4N DceHfCk GKcFfkJ Incongruent left correct Normal 551
16 77 LeftSmaller RTTaskExp Prime_1A Target_6N CfibKFm DlafhME Incongruent right correct Normal 413
16 78 LeftSmaller RTTaskExp Prime_1A Target_9A GmIcBfj EdLkFhi Incongruent left error Normal 420
16 79 LeftSmaller RTTaskExp Prime_4N Target_9N ejMDaEL GDjHmhC Incongruent right correct Normal 389
16 80 LeftSmaller RTTaskExp Prime_9A Target_9N dfhbkDc BEMfcKF Congruent right correct Normal 311
16 81 LeftSmaller RTTaskExp Prime_1A Target_4N FfeJcjh aBkGgfe Congruent left correct Normal 457
16 82 LeftSmaller RTTaskExp Prime_1A Target_1N HLDFJmc JjcgDhH Congruent right error Normal 347
16 83 LeftSmaller RTTaskExp Prime_9A Target_6N DjEAFJC lFbgHIG Congruent right correct Normal 465
16 84 LeftSmaller RTTaskExp Prime_6A Target_9A ICHiDlm BKMihCF Congruent right correct Normal 479
16 85 LeftSmaller RTTaskExp Prime_4A Target_1A IbflJFA AhMeJdk Congruent left correct Normal 369
16 86 LeftSmaller RTTaskExp Prime_1A Target_9A MjlhEgd imIcfFE Incongruent right correct Normal 427
16 87 LeftSmaller RTTaskExp Prime_1A Target_1A eHIJKdC baAEhld Congruent left correct Normal 388
16 88 LeftSmaller RTTaskExp Prime_9N Target_1N jGLEHMf HfKEGdB Incongruent left correct Normal 524
16 89 LeftSmaller RTTaskExp Prime_1N Target_4N DbGBIki cbDEKla Congruent left correct Normal 432
16 90 LeftSmaller RTTaskExp Prime_6N Target_9A HmcLbDG dBEiajc Congruent right correct Normal 411
16 91 LeftSmaller RTTaskExp Prime_1A Target_1N CdkLjGe IFDjmJE Congruent left correct Normal 398
16 92 LeftSmaller RTTaskExp Prime_6N Target_6N jkcgMEe CABkKIL Congruent right correct Normal 388
16 93 LeftSmaller RTTaskExp Prime_9N Target_4N ILaCbjg fmjBahg Incongruent right error Normal 435
16 94 LeftSmaller RTTaskExp Prime_9N Target_4N ILbjhBg AflamBJ Incongruent left correct Normal 692
16 95 LeftSmaller RTTaskExp Prime_9A Target_4N HiKCjGl hcGCiMA Incongruent left correct Normal 379
16 96 LeftSmaller RTTaskExp Prime_6N Target_1A HBDcIif BhIlLMg Incongruent left correct Normal 511
16 97 LeftSmaller RTTaskExp Prime_4A Target_4A IEeGMcA eCGkEmi Congruent left correct Normal 443
16 98 LeftSmaller RTTaskExp Prime_1A Target_9N cIjbDBA FlEcIdC Incongruent right correct Normal 520
16 99 LeftSmaller RTTaskExp Prime_4N Target_6A McAGCBk ieABkIh Incongruent left error Normal 515
16 100 LeftSmaller RTTaskExp Prime_4N Target_6A CEcgIdL jeEIkbK Incongruent right correct Normal 427
16 101 LeftSmaller RTTaskExp Prime_6A Target_4A IGbEeaM HdmAJBl Incongruent left correct Normal 495
16 102 LeftSmaller RTTaskExp Prime_6N Target_6A GLBdgba dHcLjMC Congruent right correct Normal 411
16 103 LeftSmaller RTTaskExp Prime_6N Target_1N hkjGEdm HMkeCDG Incongruent left correct Normal 363
16 104 LeftSmaller RTTaskExp Prime_1A Target_6A GdFgeaJ BmlkdLi Incongruent right correct Normal 412
16 105 LeftSmaller RTTaskExp Prime_9N Target_6A BFHJfDC bEGhMkK Congruent right correct Normal 424
16 106 LeftSmaller RTTaskExp Prime_1A Target_9A amleCHI dDfEAGj Incongruent left error Normal 335
16 107 LeftSmaller RTTaskExp Prime_4A Target_6A IkeaAgH BaLiEhm Incongruent right correct Normal 368
16 108 LeftSmaller RTTaskExp Prime_9N Target_4A fkLmABI FhmbEDe Incongruent left correct Normal 439
16 109 LeftSmaller RTTaskExp Prime_9A Target_6A dEachbM gAljIaK Congruent right correct Normal 362
16 110 LeftSmaller RTTaskExp Prime_1A Target_1N ljHCMcb AFKmekl Congruent left correct Normal 446
16 111 LeftSmaller RTTaskExp Prime_4N Target_9N icEgakm jkaeIEb Incongruent right correct Normal 536
16 112 LeftSmaller RTTaskExp Prime_6N Target_1A KHjdfgl dMHeCbA Incongruent left correct Normal 432
16 113 LeftSmaller RTTaskExp Prime_6A Target_9A KDdBFEC EmMbILg Congruent right correct Normal 387
16 114 LeftSmaller RTTaskExp Prime_1N Target_4A iGJecgM gLceBIl Congruent left correct Normal 351
16 115 LeftSmaller RTTaskExp Prime_4A Target_1A MEckmbi dCbEmjc Congruent left correct Normal 474
16 116 LeftSmaller RTTaskExp Prime_1N Target_6A fklLaCm DAbGBLj Incongruent right correct Normal 368
16 117 LeftSmaller RTTaskExp Prime_4N Target_6N hecGHFB LBHjGKg Incongruent left error Normal 425
16 118 LeftSmaller RTTaskExp Prime_4N Target_4N kDbfBIC lDLgBGE Congruent left correct Normal 509
16 119 LeftSmaller RTTaskExp Prime_1N Target_9A mAdeijf jgIbiHh Incongruent right correct Normal 401
16 120 LeftSmaller RTTaskExp Prime_4N Target_6N DamhMcf bhiGHKm Incongruent right correct Normal 429
16 121 LeftSmaller RTTaskExp Prime_9N Target_4N CMmhGcA lCBjDkf Incongruent left correct Normal 558
16 122 LeftSmaller RTTaskExp Prime_1A Target_6N HeiafdM dleGhki Incongruent right correct Normal 693
16 123 LeftSmaller RTTaskExp Prime_6A Target_6A Ghlbkdj filjbDC Congruent right correct Normal 458
16 124 LeftSmaller RTTaskExp Prime_9A Target_4N MhDgFBJ HmIkhJa Incongruent left correct Normal 442
16 125 LeftSmaller RTTaskExp Prime_9N Target_1N dJeFjib MAfEKmG Incongruent right error Normal 419
16 126 LeftSmaller RTTaskExp Prime_4A Target_6N KIcFBEi CIHjklh Incongruent right correct Normal 403
16 127 LeftSmaller RTTaskExp Prime_9N Target_1N lILFKcC kDfHmgC Incongruent left correct Normal 393
16 128 LeftSmaller RTTaskExp Prime_9A Target_9A GhmjJCL bHiFAGm Congruent right correct Normal 488
16 129 LeftSmaller RTTaskExp Prime_4N Target_6A lJbmfcd aBHmeDE Incongruent right correct Normal 437
16 130 LeftSmaller RTTaskExp Prime_4A Target_1N lIBJakL ecDHCLI Congruent left correct Normal 424
16 131 LeftSmaller RTTaskExp Prime_4A Target_4A bHhFElc GmJcCBk Congruent left correct Normal 418
16 132 LeftSmaller RTTaskExp Prime_1A Target_4N EFdljMG glihmIc Congruent left correct Normal 508
16 133 LeftSmaller RTTaskExp Prime_4A Target_9N bhECLFm DBCFgel Incongruent right correct Normal 365
16 134 LeftSmaller RTTaskExp Prime_6N Target_6N EHgCeDk FmdLGfj Congruent left error Normal 423
16 135 LeftSmaller RTTaskExp Prime_1A Target_1A KhaIliD EIMCjkD Congruent left correct Normal 463
16 136 LeftSmaller RTTaskExp Prime_4A Target_4N gjdacCe cIljLFa Congruent right error Normal 348
16 137 LeftSmaller RTTaskExp Prime_6A Target_6N HcBAdaj LedaKAF Congruent right correct Normal 540
16 138 LeftSmaller RTTaskExp Prime_9N Target_9N aEdAfGb gmhfiCH Congruent right correct Normal 402
16 139 LeftSmaller RTTaskExp Prime_9A Target_1N emiEfgl fjHCBmG Incongruent left correct Normal 489
16 140 LeftSmaller RTTaskExp Prime_6N Target_4N IJgLHlM hbLeAFD Incongruent right error Normal 375
16 141 LeftSmaller RTTaskExp Prime_1N Target_9N laDEImd fgaFIHK Incongruent right correct Normal 523
16 142 LeftSmaller RTTaskExp Prime_6A Target_1N aJMlHkf DjlCkdh Incongruent left correct Normal 501
16 143 LeftSmaller RTTaskExp Prime_9N Target_1A FMkjbJf bFgmcdl Incongruent left correct Normal 486
16 144 LeftSmaller RTTaskExp Prime_1N Target_1N AajclGg DiMfABc Congruent left correct Normal 359
16 145 LeftSmaller RTTaskExp Prime_4N Target_1N BbHjlmD JDIBieM Congruent left correct Normal 369
16 146 LeftSmaller RTTaskExp Prime_4A Target_4N FkleCMa DJmajMI Congruent left correct Normal 394
16 147 LeftSmaller RTTaskExp Prime_9A Target_9N bLlfBkC BgLFbKM Congruent left error Normal 378
16 148 LeftSmaller RTTaskExp Prime_1N Target_1A DcFGagH HfkDejg Congruent left correct Normal 424
16 149 LeftSmaller RTTaskExp Prime_4N Target_1A kIafjLe LmGBChb Congruent right error Normal 414
16 150 LeftSmaller RTTaskExp Prime_6A Target_1A jgMElbA aFeflbK Incongruent left correct Normal 413
16 151 LeftSmaller RTTaskExp Prime_4N Target_1A AEbghDH DAFlEhC Congruent left correct Normal 369
16 152 LeftSmaller RTTaskExp Prime_4N Target_9A FGhAcIE mgKLiHF Incongruent right correct Normal 523
16 153 LeftSmaller RTTaskExp Prime_6N Target_9N KHdDIaG KFbBhdH Congruent right correct Normal 465
16 154 LeftSmaller RTTaskExp Prime_6N Target_4N BebfMcI blidfJB Incongruent left correct Normal 464
16 155 LeftSmaller RTTaskExp Prime_6N Target_6N HfdlFBE elHCkhg Congruent right correct Normal 337
16 156 LeftSmaller RTTaskExp Prime_6A Target_4N HGfEFCm CiMfIBJ Incongruent left correct Normal 454
16 157 LeftSmaller RTTaskExp Prime_6A Target_9N bKiflhC HjbkeAD Congruent right correct Normal 415
16 158 LeftSmaller RTTaskExp Prime_1A Target_9A GKlgdHj DeBhdKJ Incongruent left error Normal 421
16 159 LeftSmaller RTTaskExp Prime_1A Target_4A mCMidcD dfjHbAm Congruent right error Normal 415
16 160 LeftSmaller RTTaskExp Prime_9A Target_6N HEhfcbm bHLMFCB Congruent right correct Normal 593
16 161 LeftSmaller RTTaskExp Prime_9N Target_6N gFLKBld cgBfMCG Congruent right correct Normal 427
16 162 LeftSmaller RTTaskExp Prime_6N Target_4A CLHjDek dhFiDmb Incongruent left correct Normal 443
16 163 LeftSmaller RTTaskExp Prime_1A Target_9N KkdCEHj admKhlA Incongruent right correct Normal 626
16 164 LeftSmaller RTTaskExp Prime_1N Target_6N dehJkKb bldgiMk Incongruent left error Normal 401
16 165 LeftSmaller RTTaskExp Prime_1N Target_4N JhAFMIm HeKADFi Congruent left correct Normal 488
16 166 LeftSmaller RTTaskExp Prime_9A Target_1A mFlfHde mLdIBaM Incongruent left correct Normal 488
16 167 LeftSmaller RTTaskExp Prime_9A Target_4A lhAcBGF hcGaBiL Incongruent left correct Normal 564
16 168 LeftSmaller RTTaskExp Prime_1N Target_6N MIEmFhL JHfcKlj Incongruent right correct Normal 374
16 169 LeftSmaller RTTaskExp Prime_9A Target_9N cgLADaB MkdAJgl Congruent right correct Normal 491
16 170 LeftSmaller RTTaskExp Prime_4A Target_9A FilCcKd BFkfhGg Incongruent right correct Normal 505
16 171 LeftSmaller RTTaskExp Prime_4N Target_4A GJfikMA gHFElDJ Congruent left correct Normal 400
16 172 LeftSmaller RTTaskExp Prime_6N Target_9A jgLMDba jbDhHac Congruent right correct Normal 531
16 173 LeftSmaller RTTaskExp Prime_9N Target_9A lfDmMAe JIgBeam Congruent right correct Normal 307
16 174 LeftSmaller RTTaskExp Prime_1A Target_9A lLIeKaG iDdfcJI Incongruent right correct Normal 356
16 175 LeftSmaller RTTaskExp Prime_1A Target_4A kIbfGEe gkbGCFK Congruent left correct Normal 465
16 176 LeftSmaller RTTaskExp Prime_4A Target_4A MJkbDBI LDIhHmd Congruent left correct Normal 441
16 177 LeftSmaller RTTaskExp Prime_1A Target_1A hgDaCIJ mJFhAKH Congruent left correct Normal 366
16 178 LeftSmaller RTTaskExp Prime_9A Target_6N bcMEfBF LkfbiIa Congruent right correct Normal 472
16 179 LeftSmaller RTTaskExp Prime_6A Target_6N LHgmACk jgmKMJc Congruent right correct Normal 436
16 180 LeftSmaller RTTaskExp Prime_1A Target_9A GEMbBeI EkAbJfM Incongruent left error Normal 385
16 181 LeftSmaller RTTaskExp Prime_4N Target_1N eghAbKM cFfdkAi Congruent left correct Normal 407
16 182 LeftSmaller RTTaskExp Prime_1N Target_6N AKjdGIH gmHcBbi Incongruent right correct Normal 413
16 183 LeftSmaller RTTaskExp Prime_9N Target_6A dhbfKak hGCcmeB Congruent right correct Normal 439
16 184 LeftSmaller RTTaskExp Prime_4N Target_6A caMLHdj fdCbBcg Incongruent right correct Normal 356
16 185 LeftSmaller RTTaskExp Prime_4N Target_9N CedDHfi GDEFHKd Incongruent right correct Normal 498
16 186 LeftSmaller RTTaskExp Prime_6N Target_6N aAiLCfl MKdbfDB Congruent right correct Normal 443
16 187 LeftSmaller RTTaskExp Prime_4A Target_1N GDEmIKg kcadhgD Congruent left correct Normal 445
16 188 LeftSmaller RTTaskExp Prime_6A Target_1N KeGdfCE ehicDjg Incongruent left correct Normal 399
16 189 LeftSmaller RTTaskExp Prime_1A Target_9N EhagDjl dBkiCmK Incongruent left error Normal 387
16 190 LeftSmaller RTTaskExp Prime_1N Target_1N HaJCmfj CMekdKl Congruent left correct Normal 497
16 191 LeftSmaller RTTaskExp Prime_6A Target_6A JBCfeak jHEaflL Congruent right correct Normal 427
16 192 LeftSmaller RTTaskExp Prime_1A Target_4A AelJBjG dhFlImG Congruent left correct Normal 423
16 193 LeftSmaller RTTaskExp Prime_6N Target_4N igHkcLI dihLCgb Incongruent left correct Normal 433
16 194 LeftSmaller RTTaskExp Prime_6A Target_1A kfAgFic LFbMilk Incongruent right error Normal 429
16 195 LeftSmaller RTTaskExp Prime_9N Target_9N aFkAfdJ kcjaDmi Congruent right correct Normal 591
16 196 LeftSmaller RTTaskExp Prime_6A Target_4A hKeiMId jJEBkcL Incongruent left correct Normal 387
16 197 LeftSmaller RTTaskExp Prime_9N Target_4A LfGhMai eHDMEJm Incongruent left correct Normal 524
16 198 LeftSmaller RTTaskExp Prime_1A Target_9N IGmbfAJ MmhbfJj Incongruent right correct Normal 450
16 199 LeftSmaller RTTaskExp Prime_9A Target_9A FEDHLgj hEDiJfa Congruent left error Normal 350
16 200 LeftSmaller RTTaskExp Prime_4A Target_9N ElhKcBH MGkEleI Incongruent right correct Normal 379
16 201 LeftSmaller RTTaskExp Prime_1A Target_6A kDCbaIm lhmFBkJ Incongruent right correct Normal 474
16 202 LeftSmaller RTTaskExp Prime_9N Target_9A kMfdFhL KCcMgIi Congruent right correct Normal 349
16 203 LeftSmaller RTTaskExp Prime_6N Target_4A HkmFlDf gcHkMfl Incongruent left correct Normal 406
16 204 LeftSmaller RTTaskExp Prime_9A Target_9N mBbjcDM CjbcEHJ Congruent right correct Normal 415
16 205 LeftSmaller RTTaskExp Prime_6N Target_1N IJidfLK MkFIAla Incongruent right error Normal 322
16 206 LeftSmaller RTTaskExp Prime_4A Target_9A hIGAFjb mBIiAME Incongruent right correct Normal 450
16 207 LeftSmaller RTTaskExp Prime_9N Target_1A bFlgBme IkjhfEL Incongruent left correct Normal 391
16 208 LeftSmaller RTTaskExp Prime_4N Target_4N ifadCLD CBFhmDK Congruent left correct Normal 473
16 209 LeftSmaller RTTaskExp Prime_6N Target_6A ILAeDMi bdFegmC Congruent right correct Normal 453
16 210 LeftSmaller RTTaskExp Prime_6N Target_9N fjMClcE CJcfIMA Congruent right correct Normal 416
16 211 LeftSmaller RTTaskExp Prime_1N Target_9N hdGADiJ IGBhkeD Incongruent right correct Normal 440
16 212 LeftSmaller RTTaskExp Prime_4A Target_6N lBeHgKk GMldgBj Incongruent left error Normal 388
16 213 LeftSmaller RTTaskExp Prime_9N Target_1N geKmcCb ichKCBE Incongruent left correct Normal 557
16 214 LeftSmaller RTTaskExp Prime_6A Target_4N hjilEfG FDcfahG Incongruent left correct Normal 670
16 215 LeftSmaller RTTaskExp Prime_9A Target_6A IjDbJBC DJmBFdI Congruent right correct Normal 690
16 216 LeftSmaller RTTaskExp Prime_9A Target_4N gdhlDeI GLdEAci Incongruent right error Normal 374
16 217 LeftSmaller RTTaskExp Prime_1A Target_1N JjMfAkc eMIlmdh Congruent left correct Normal 521
16 218 LeftSmaller RTTaskExp Prime_1A Target_4N kHjIMFd AmHjbIl Congruent left correct Normal 544
16 219 LeftSmaller RTTaskExp Prime_1N Target_4N fmacMdA agFIBDd Congruent left correct Normal 457
16 220 LeftSmaller RTTaskExp Prime_4N Target_6N DIiGcCM GIgJmbF Incongruent right correct Normal 435
16 221 LeftSmaller RTTaskExp Prime_6N Target_1N lhkaICH iCjGfMb Incongruent left correct Normal 502
16 222 LeftSmaller RTTaskExp Prime_4A Target_6N jCelbdM dmEgCBG Incongruent right correct Normal 476
16 223 LeftSmaller RTTaskExp Prime_4N Target_9A FAHClib kGbedmj Incongruent right correct Normal 516
16 224 LeftSmaller RTTaskExp Prime_1A Target_9A gCMjafi MdIckEH Incongruent right correct Normal 547
16 225 LeftSmaller RTTaskExp Prime_4A Target_4N FiEHfID BAedHim Congruent left correct Normal 500
16 226 LeftSmaller RTTaskExp Prime_4A Target_1A iAeaDKL ekmbiKd Congruent left correct Normal 439
16 227 LeftSmaller RTTaskExp Prime_9N Target_6N JhjEdkH fgDeJEC Congruent right correct Normal 560
16 228 LeftSmaller RTTaskExp Prime_4N Target_1A JGKDACB bmeBkHF Congruent left correct Normal 385
16 229 LeftSmaller RTTaskExp Prime_9A Target_9A hDEfeGk IKmFaCL Congruent right correct Normal 453
16 230 LeftSmaller RTTaskExp Prime_6A Target_9A AKkCMaH iahMdHf Congruent right correct Normal 368
16 231 LeftSmaller RTTaskExp Prime_1N Target_4A BiAIDeL LeHMfbm Congruent right error Normal 383
16 232 LeftSmaller RTTaskExp Prime_6N Target_1A dBhEJFf bHFIJCd Incongruent left correct Normal 499
16 233 LeftSmaller RTTaskExp Prime_1N Target_9A ibCMlEJ bijJCEH Incongruent right correct Normal 415
16 234 LeftSmaller RTTaskExp Prime_9A Target_4A BKlfedk Eildmba Incongruent left correct Normal 460
16 235 LeftSmaller RTTaskExp Prime_1A Target_6N mdkCBEa LHCkaBd Incongruent right correct Normal 513
16 236 LeftSmaller RTTaskExp Prime_6A Target_9N gleDdcH FAjJmga Congruent left error Normal 421
16 237 LeftSmaller RTTaskExp Prime_9A Target_1N IgfeiHJ kIHDGFl Incongruent left correct Normal 735
16 238 LeftSmaller RTTaskExp Prime_6A Target_9N CBfjJbG jlhmeGE Congruent right correct Normal 616
16 239 LeftSmaller RTTaskExp Prime_9N Target_4N HaGMjDm Cklacbm Incongruent right error Normal 396
16 240 LeftSmaller RTTaskExp Prime_1N Target_1A bHKDCfF ikCeabj Congruent left correct Normal 443
16 241 LeftSmaller RTTaskExp Prime_9A Target_1A HjigKEk HaGAJfj Incongruent left correct Normal 398
16 242 LeftSmaller RTTaskExp Prime_9N Target_4N DCLkJEM eEhJFID Incongruent left correct Normal 385
16 243 LeftSmaller RTTaskExp Prime_4N Target_4A dLGfhjH iIEDHmb Congruent left correct Normal 410
16 244 LeftSmaller RTTaskExp Prime_4A Target_6A DBCGglf lmHehCF Incongruent right correct Normal 602
16 245 LeftSmaller RTTaskExp Prime_1N Target_6A hAjDidl LJHmdCe Incongruent right correct Normal 481
16 246 LeftSmaller RTTaskExp Prime_6N Target_9A IEiAkCj gKmkbHF Congruent right correct Normal 454
16 247 LeftSmaller RTTaskExp Prime_6A Target_1A hLBAcFl EFdkjac Incongruent left correct Normal 452
16 248 LeftSmaller RTTaskExp Prime_9A Target_4N KfeJjgC KAiFJHf Incongruent right error Normal 425
16 249 LeftSmaller RTTaskExp Prime_1N Target_4A kJeEcBD BGKACac Congruent left correct Normal 410
16 250 LeftSmaller RTTaskExp Prime_9A Target_4N cfAEdia mJLkbgB Incongruent left correct Normal 496
16 251 LeftSmaller RTTaskExp Prime_4N Target_1N gEDmCAH ECfMAbc Congruent left correct Late 1304
16 252 LeftSmaller RTTaskExp Prime_4A Target_6A bfAEIkC cJChiDK Incongruent right correct Normal 421
16 253 LeftSmaller RTTaskExp Prime_1A Target_1N KHCBmiJ JckeidK Congruent left correct Normal 489
16 254 LeftSmaller RTTaskExp Prime_9N Target_4A FIMhDGe IDKFAiL Incongruent left correct Normal 584
16 255 LeftSmaller RTTaskExp Prime_1A Target_1A hlmdkCM BMLDbmH Congruent left correct Normal 433
16 256 LeftSmaller RTTaskExp Prime_6N Target_9N HDhaMbI KeMhgGj Congruent right correct Normal 431
16 257 LeftSmaller RTTaskExp Prime_9N Target_9A BgLbdDl KDiFajm Congruent right correct Normal 487
16 258 LeftSmaller RTTaskExp Prime_1A Target_6N gmKEiBh BAjKcil Incongruent left error Normal 490
16 259 LeftSmaller RTTaskExp Prime_9N Target_6A lGcDEIH FmifGHj Congruent right correct Normal 520
16 260 LeftSmaller RTTaskExp Prime_1A Target_4A EbimkAj khCgbMH Congruent left correct Normal 464
16 261 LeftSmaller RTTaskExp Prime_4N Target_1N JmfhLMb JLlMiGg Congruent left correct Normal 400
16 262 LeftSmaller RTTaskExp Prime_4N Target_1A iAJGjeB mAlEcCg Congruent left correct Normal 412
16 263 LeftSmaller RTTaskExp Prime_9A Target_9N aLfliMJ EKbJeDk Congruent right correct Normal 490
16 264 LeftSmaller RTTaskExp Prime_4A Target_1A MaKdkbf jBakhLC Congruent left correct Normal 451
16 265 LeftSmaller RTTaskExp Prime_4N Target_6A gdjKhlH BLefmMJ Incongruent right correct Normal 462
16 266 LeftSmaller RTTaskExp Prime_4N Target_4A kBMgJjh iFdlcbh Congruent left correct Normal 388
16 267 LeftSmaller RTTaskExp Prime_6A Target_4N FecfKGg iaMDHhf Incongruent left correct Normal 481
16 268 LeftSmaller RTTaskExp Prime_1N Target_6N HhJIDLC IjHECda Incongruent right correct Normal 466
16 269 LeftSmaller RTTaskExp Prime_1A Target_4N dhGiFec kiCLgje Congruent left correct Normal 433
16 270 LeftSmaller RTTaskExp Prime_6A Target_1N lJmMkKF KjCJdFg Incongruent right error Normal 404
16 271 LeftSmaller RTTaskExp Prime_6N Target_6N BjGlcgd DbdgaMf Congruent right correct Normal 429
16 272 LeftSmaller RTTaskExp Prime_1N Target_9N DGgabeE kDbcmeK Incongruent left error Normal 413
16 273 LeftSmaller RTTaskExp Prime_9A Target_6N liDhbeJ HKfbDMa Congruent right correct Normal 397
16 274 LeftSmaller RTTaskExp Prime_9A Target_4N jbmiedI AkdhlKG Incongruent left correct Normal 611
16 275 LeftSmaller RTTaskExp Prime_1A Target_9N MieKcgJ iDLheck Incongruent right correct Normal 558
16 276 LeftSmaller RTTaskExp Prime_6N Target_1N IBabcMd aGIdmCJ Incongruent left correct Normal 478
16 277 LeftSmaller RTTaskExp Prime_1A Target_9A JfEIcdh HLKAjkf Incongruent right correct Normal 488
16 278 LeftSmaller RTTaskExp Prime_6A Target_6N afHIGAE KliAmCh Congruent right correct Normal 388
16 279 LeftSmaller RTTaskExp Prime_1N Target_4A GFKfBaL ADcEkFi Congruent left correct Normal 365
16 280 LeftSmaller RTTaskExp Prime_1A Target_6N KfEdgIA mejbcAK Incongruent right correct Normal 385
16 281 LeftSmaller RTTaskExp Prime_9A Target_9A EbjJmld hDjkdHa Congruent right correct Normal 385
16 282 LeftSmaller RTTaskExp Prime_6A Target_9A fEiGDeF hgCGkfl Congruent right correct Normal 650
16 283 LeftSmaller RTTaskExp Prime_9A Target_4A eKLBgbE JbjacKE Incongruent left correct Normal 426
16 284 LeftSmaller RTTaskExp Prime_1N Target_1A EDAIdHf dGMFLlf Congruent left correct Normal 398
16 285 LeftSmaller RTTaskExp Prime_1N Target_1N BkKFHjd iBLcaDb Congruent left correct Normal 414
16 286 LeftSmaller RTTaskExp Prime_4N Target_9A jHMiECb cldheBE Incongruent right correct Normal 437
16 287 LeftSmaller RTTaskExp Prime_4A Target_4A gajCJcE mMJleKE Congruent left correct Normal 507
16 288 LeftSmaller RTTaskExp Prime_1N Target_4N fHgbiEd BDcEAGm Congruent left correct Normal 466
16 289 LeftSmaller RTTaskExp Prime_9N Target_1N DmMdeBf bDlIMhA Incongruent left correct Normal 435
16 290 LeftSmaller RTTaskExp Prime_6A Target_1N GmdblFE HifALaM Incongruent right error Normal 408
16 291 LeftSmaller RTTaskExp Prime_4N Target_6N hJDdbjg FgKJEjm Incongruent right correct Normal 490
16 292 LeftSmaller RTTaskExp Prime_6A Target_9N AhcbEmI HDmKGEB Congruent right correct Normal 267
16 293 LeftSmaller RTTaskExp Prime_6A Target_6A MJFiAHG kcCIfhg Congruent right correct Normal 467
16 294 LeftSmaller RTTaskExp Prime_4A Target_1N iHdDkEc bEgCJlK Congruent left correct Normal 590
16 295 LeftSmaller RTTaskExp Prime_1N Target_9N CFkELcJ mFJaAEl Incongruent right correct Normal 594
16 296 LeftSmaller RTTaskExp Prime_9N Target_6N JkGCfdB mdEiDcB Congruent right correct Normal 538
16 297 LeftSmaller RTTaskExp Prime_9A Target_1N gmfMCAJ dEhmgJM Incongruent left correct Normal 460
16 298 LeftSmaller RTTaskExp Prime_6N Target_1A IAHmkJl mbLHCIF Incongruent left correct Normal 515
16 299 LeftSmaller RTTaskExp Prime_1N Target_9A HblgAJd CEKAeLg Incongruent right correct Normal 427
16 300 LeftSmaller RTTaskExp Prime_6A Target_1A AmDbKik CIHhFkd Incongruent left correct Normal 484
16 301 LeftSmaller RTTaskExp Prime_6N Target_4A IimgjDa cAhJGgD Incongruent left correct Normal 393
16 302 LeftSmaller RTTaskExp Prime_9N Target_1A egaEbLi eKGHCjf Incongruent left correct Normal 394
16 303 LeftSmaller RTTaskExp Prime_1A Target_6A FcehHlE fFiKJMC Incongruent right correct Normal 459
16 304 LeftSmaller RTTaskExp Prime_4N Target_9N ElLjkda AbKLgkD Incongruent left error Normal 436
16 305 LeftSmaller RTTaskExp Prime_6N Target_9A aHDKBhC mFbclkg Congruent right correct Normal 341
16 306 LeftSmaller RTTaskExp Prime_6A Target_4A FEldcHa MkdbIeL Incongruent left correct Normal 461
16 307 LeftSmaller RTTaskExp Prime_4A Target_4N flEFaeA LFadCfK Congruent left correct Normal 490
16 308 LeftSmaller RTTaskExp Prime_4N Target_4N fHImkac Gaflidc Congruent left correct Normal 385
16 309 LeftSmaller RTTaskExp Prime_6N Target_6A hcEJAGd CgmHIad Congruent right correct Normal 419
16 310 LeftSmaller RTTaskExp Prime_9N Target_4N KmEjIGf eJCGfMl Incongruent right error Normal 318
16 311 LeftSmaller RTTaskExp Prime_9N Target_9N JmfkFKl CkhBlIA Congruent right correct Normal 545
16 312 LeftSmaller RTTaskExp Prime_6A Target_1N bjkCgIG bdClGeL Incongruent left correct Normal 462
16 313 LeftSmaller RTTaskExp Prime_4N Target_9N kilFGJj HFgkGbC Incongruent left error Normal 476
16 314 LeftSmaller RTTaskExp Prime_4N Target_9N cedahBi EAmKHlJ Incongruent left error Normal 437
16 315 LeftSmaller RTTaskExp Prime_9N Target_4N IHmlbge FkjBcAJ Incongruent left correct Normal 519
16 316 LeftSmaller RTTaskExp Prime_4N Target_9N Cjalcfi fMHJkFE Incongruent right correct Normal 457
16 317 LeftSmaller RTTaskExp Prime_1N Target_6A hLDgdIF JiKELCI Incongruent right correct Normal 503
16 318 LeftSmaller RTTaskExp Prime_4A Target_9A dhCcBLf bGdmlaH Incongruent right correct Normal 496
16 319 LeftSmaller RTTaskExp Prime_9A Target_1A DJFIgaH kDIeELh Incongruent left correct Normal 498
16 320 LeftSmaller RTTaskExp Prime_4A Target_6N fEDCGck bLIJfMH Incongruent right correct Normal 481
16 321 LeftSmaller RTTaskExp Prime_9A Target_6A iHcEjab mLkeChM Congruent right correct Normal 433
16 322 LeftSmaller RTTaskExp Prime_4A Target_9N GbKBlJd fJFDigA Incongruent right correct Normal 551
16 323 LeftSmaller RTTaskExp Prime_6N Target_4N bHkdAfE aJmBbde Incongruent left correct Late 1664
16 324 LeftSmaller RTTaskExp Prime_6N Target_4N giABKah eGDdHlj Incongruent right error Normal 384
16 325 LeftSmaller RTTaskExp Prime_6N Target_4N ECbfcDJ cgajDEI Incongruent left correct Normal 421
17 23 LeftLarger RTTaskExp Prime_6N Target_9N cAgMGbI cAaeHgl Congruent left correct Normal 529
17 24 LeftLarger RTTaskExp Prime_6N Target_6A BcmgKIl JLdgmlC Congruent left correct Normal 513
17 25 LeftLarger RTTaskExp Prime_1A Target_9N KBAcjJF DFIHAlK Incongruent left correct Normal 405
17 26 LeftLarger RTTaskExp Prime_6A Target_1A AgheaJB aBMGJCE Incongruent right correct Normal 412
17 27 LeftLarger RTTaskExp Prime_9N Target_6A ljbJehC DMaeAdg Congruent right error Normal 487
17 28 LeftLarger RTTaskExp Prime_9A Target_9N HhBDEfl ECjJLIi Congruent left correct Normal 580
17 29 LeftLarger RTTaskExp Prime_4A Target_9N AjEhGMe FbjgBhD Incongruent left correct Normal 427
17 30 LeftLarger RTTaskExp Prime_9A Target_1A FlighDA bMBIeaJ Incongruent right correct Normal 423
17 31 LeftLarger RTTaskExp Prime_9N Target_1A FgdLJkG cMlhEjg Incongruent right correct Normal 467
17 32 LeftLarger RTTaskExp Prime_1A Target_6A aGjJdCA GjBlhcA Incongruent left correct Normal 408
17 33 LeftLarger RTTaskExp Prime_1N Target_1N FKIDElC Dfhajkl Congruent left error Normal 556
17 34 LeftLarger RTTaskExp Prime_1A Target_1N eGDhdcK mFCfjdb Congruent right correct Normal 467
17 35 LeftLarger RTTaskExp Prime_9N Target_4A ciIjDKa kJgAFLd Incongruent right correct Normal 533
17 36 LeftLarger RTTaskExp Prime_4A Target_1A EjJbHmF CMfGcdk Congruent right correct Normal 454
17 37 LeftLarger RTTaskExp Prime_9N Target_6N LbEGmaB dJMjGgH Congruent right error Normal 571
17 38 LeftLarger RTTaskExp Prime_6N Target_1N LmJbeaj CMJfBiE Incongruent right correct Normal 532
17 39 LeftLarger RTTaskExp Prime_1A Target_1A ekIbcBG IJBgfiH Congruent right correct Normal 472
17 40 LeftLarger RTTaskExp Prime_9A Target_6N AkKeica MbDkLKa Congruent right error Normal 504
17 41 LeftLarger RTTaskExp Prime_6N Target_1A HJibCLD iDFaHBG Incongruent right correct Normal 516
17 42 LeftLarger RTTaskExp Prime_9N Target_9N edGJAcm DhEgHCf Congruent left correct Normal 502
17 43 LeftLarger RTTaskExp Prime_6N Target_6N kImEjMe bJGDdfc Congruent right error Normal 557
17 44 LeftLarger RTTaskExp Prime_9A Target_4N KFhjcad EefjgMa Incongruent right correct Normal 815
17 45 LeftLarger RTTaskExp Prime_6N Target_4A dclgKkf GmbeEhd Incongruent right correct Normal 488
17 46 LeftLarger RTTaskExp Prime_9N Target_4N DefigjH elIAdKb Incongruent right correct Normal 512
17 47 LeftLarger RTTaskExp Prime_4A Target_4A jMAIFlJ FDKJiBA Congruent right correct Normal 452
17 48 LeftLarger RTTaskExp Prime_9A Target_1N JHjhfbF hGgCfae Incongruent right correct Normal 501
17 49 LeftLarger RTTaskExp Prime_9N Target_6N HCaeJhk dGIAaEK Congruent left correct Normal 704
17 50 LeftLarger RTTaskExp Prime_1N Target_9N FkaGilA kGelHcM Incongruent left correct Normal 509
17 51 LeftLarger RTTaskExp Prime_1A Target_9A jAfeFKL CJhKckB Incongruent left correct Normal 469
17 52 LeftLarger RTTaskExp Prime_1N Target_6N cdbIBej FLjliga Incongruent left correct Normal 661
17 53 LeftLarger RTTaskExp Prime_6N Target_6N LFhbgmB fHClcIg Congruent left correct Normal 466
17 54 LeftLarger RTTaskExp Prime_9N Target_9A IGaAfMh MhCmaKg Congruent left correct Normal 445
17 55 LeftLarger RTTaskExp Prime_9A Target_9A FmAIJlg mJKgDHf Congruent left correct Normal 362
17 56 LeftLarger RTTaskExp Prime_4N Target_9A miMFLec GFkgLKB Incongruent left correct Normal 436
17 57 LeftLarger RTTaskExp Prime_6A Target_6A DgLmaMK diHfAIb Congruent left correct Normal 453
17 58 LeftLarger RTTaskExp Prime_4A Target_6N FmfKchG CDJhgik Incongruent left correct Normal 806
17 59 LeftLarger RTTaskExp Prime_1N Target_1A JfBdgHh gaebhCf Congruent right correct Normal 538
17 60 LeftLarger RTTaskExp Prime_1N Target_4A GEehMcF kLKiFGf Congruent right correct Normal 529
17 61 LeftLarger RTTaskExp Prime_1N Target_6A jDEJeFf EGFIakK Incongruent left correct Normal 619
17 62 LeftLarger RTTaskExp Prime_4N Target_4A baimdJE BGhMCAa Congruent right correct Normal 690
17 63 LeftLarger RTTaskExp Prime_6A Target_4N mFlAEhb Gjclkhf Incongruent right correct Normal 564
17 64 LeftLarger RTTaskExp Prime_9A Target_4A JLEdAkF kLfEbHa Incongruent right correct Normal 464
17 65 LeftLarger RTTaskExp Prime_9A Target_6N kmBbEIc IdLBhKG Congruent left correct Normal 606
17 66 LeftLarger RTTaskExp Prime_1N Target_4N cLDaBjC KFegJcj Congruent right correct Normal 556
17 67 LeftLarger RTTaskExp Prime_6A Target_4A alfBGHd IibclBJ Incongruent right correct Normal 456
17 68 LeftLarger RTTaskExp Prime_4A Target_1N Aflgahe ljaiJFc Congruent right correct Normal 592
17 69 LeftLarger RTTaskExp Prime_4A Target_9A EFgbjic JAjFaGd Incongruent left correct Normal 528
17 70 LeftLarger RTTaskExp Prime_4N Target_6A kLDEmhK MKLbdlm Incongruent right error Normal 527
17 71 LeftLarger RTTaskExp Prime_6A Target_9A JfkFcHK FIbjcDm Congruent left correct Normal 528
17 72 LeftLarger RTTaskExp Prime_1N Target_9A CBFMfgG CIDmibc Incongruent left correct Normal 440
17 73 LeftLarger RTTaskExp Prime_6A Target_6N EHCabiJ emjMIbf Congruent left correct Normal 605
17 74 LeftLarger RTTaskExp Prime_4A Target_6A mKkLGFA dbjAaCJ Incongruent left correct Normal 369
17 75 LeftLarger RTTaskExp Prime_1N Target_1N FdeiaKb LjFdclD Congruent right correct Normal 570
17 76 LeftLarger RTTaskExp Prime_6N Target_4N aHKADGc ikIhdDg Incongruent right correct Normal 652
17 77 LeftLarger RTTaskExp Prime_4N Target_1A kcfHdiB LChDbGH Congruent right correct Normal 644
17 78 LeftLarger RTTaskExp Prime_4N Target_1N Defcbki MADaKGJ Congruent right correct Normal 557
17 79 LeftLarger RTTaskExp Prime_4N Target_6N mcLBdlk AelGFhg Incongruent left correct Normal 546
17 80 LeftLarger RTTaskExp Prime_6A Target_9N hdEalmK dLmKFAg Congruent left correct Normal 579
17 81 LeftLarger RTTaskExp Prime_4A Target_4N ifgbkma ideIkBh Congruent right correct Normal 527
17 82 LeftLarger RTTaskExp Prime_4N Target_6A lkfFJHc bLaHcCE Incongruent left correct Normal 549
17 83 LeftLarger RTTaskExp Prime_1A Target_4A hABIfbl jCgKJHB Congruent right correct Normal 502
17 84 LeftLarger RTTaskExp Prime_6A Target_1N glIhDmE DJGfjkC Incongruent right correct Normal 558
17 85 LeftLarger RTTaskExp Prime_9N Target_6A jebEFBG EdDAiIM Congruent left correct Normal 555
17 86 LeftLarger RTTaskExp Prime_9A Target_6A aejLIBM LFIlhCA Congruent left correct Normal 497
17 87 LeftLarger RTTaskExp Prime_9N Target_1N KeEMlLb jimdCfL Incongruent right correct Normal 536
17 88 LeftLarger RTTaskExp Prime_4N Target_9N gChGdif KfdgFbA Incongruent left correct Normal 501
17 89 LeftLarger RTTaskExp Prime_1A Target_6N JKmlGDd LhCDmEA Incongruent right error Normal 714
17 90 LeftLarger RTTaskExp Prime_6N Target_9A KFGEcMm hAaDcdF Congruent left correct Normal 667
17 91 LeftLarger RTTaskExp Prime_1A Target_6N BFKGdkl hGcmfIg Incongruent left correct Normal 461
17 92 LeftLarger RTTaskExp Prime_1A Target_4N hMbLkga dfgiLbB Congruent right correct Normal 569
17 93 LeftLarger RTTaskExp Prime_4N Target_4N IfjamAi ghmJiFd Congruent right correct Normal 670
17 94 LeftLarger RTTaskExp Prime_1N Target_9N aedDmig KlhdgEA Incongruent left correct Normal 516
17 95 LeftLarger RTTaskExp Prime_4A Target_9A fIBMLCc DfhdkEb Incongruent left correct Normal 455
17 96 LeftLarger RTTaskExp Prime_9N Target_1A kJMCIaL lFgjeaE Incongruent right correct Normal 421
17 97 LeftLarger RTTaskExp Prime_1A Target_4A kFIKLaE GIMHaDF Congruent right correct Normal 680
17 98 LeftLarger RTTaskExp Prime_6A Target_6A ilfjGEC jJcfiIk Congruent left correct Normal 502
17 99 LeftLarger RTTaskExp Prime_9N Target_4A JlihcBA fJKhBHE Incongruent right correct Normal 520
17 100 LeftLarger RTTaskExp Prime_1N Target_6A fheDbHC KAGiCBD Incongruent right error Normal 742
17 101 LeftLarger RTTaskExp Prime_9A Target_9N glaLbjm JEadAck Congruent left correct Normal 519
17 102 LeftLarger RTTaskExp Prime_4N Target_4N GgkiJeL KlLgIcb Congruent right correct Normal 575
17 103 LeftLarger RTTaskExp Prime_1A Target_1N DKLekjB EIFDhdB Congruent right correct Normal 570
17 104 LeftLarger RTTaskExp Prime_1N Target_9A MiHbKLg HgBDEId Incongruent left correct Normal 486
17 105 LeftLarger RTTaskExp Prime_6N Target_9N hCjDbci kmAdGhi Congruent left correct Normal 658
17 106 LeftLarger RTTaskExp Prime_6A Target_4A LaEhHjB LAlbMec Incongruent right correct Normal 420
17 107 LeftLarger RTTaskExp Prime_1A Target_9N lMjKeba IhJjDbK Incongruent left correct Normal 524
17 108 LeftLarger RTTaskExp Prime_4A Target_1N HBEmKAJ KHjmaLd Congruent right correct Normal 523
17 109 LeftLarger RTTaskExp Prime_4N Target_9N aCDmhbE gEBLCjf Incongruent left correct Normal 549
17 110 LeftLarger RTTaskExp Prime_6N Target_4N IFLaJdi faICDhK Incongruent right correct Normal 525
17 111 LeftLarger RTTaskExp Prime_4N Target_6N kIfceHl kMFCEca Incongruent left correct Normal 545
17 112 LeftLarger RTTaskExp Prime_9A Target_1A dJDgMLF khKfEGB Incongruent right correct Normal 520
17 113 LeftLarger RTTaskExp Prime_1A Target_4N jIGMLBK blAfdgH Congruent right correct Normal 721
17 114 LeftLarger RTTaskExp Prime_4A Target_6N BHGmdfi MKAkdLh Incongruent left correct Normal 532
17 115 LeftLarger RTTaskExp Prime_6A Target_1N hdImDLf KLCidAM Incongruent right correct Normal 450
17 116 LeftLarger RTTaskExp Prime_1N Target_4A KgLMdaf IEBecMj Congruent right correct Normal 502
17 117 LeftLarger RTTaskExp Prime_6A Target_9N hgHcFeM JHlAEfD Congruent left correct Normal 600
17 118 LeftLarger RTTaskExp Prime_9A Target_9A miBEIla CAikLGM Congruent left correct Normal 503
17 119 LeftLarger RTTaskExp Prime_4N Target_6A GclmfEa lmBAHgh Incongruent right error Normal 592
17 120 LeftLarger RTTaskExp Prime_6A Target_1A hCJKLdm heaFkJD Incongruent right correct Normal 490
17 121 LeftLarger RTTaskExp Prime_1A Target_9A GigDdEF AjFiCmG Incongruent left correct Normal 473
17 122 LeftLarger RTTaskExp Prime_9N Target_9A JLEHfbI cdkFJBf Congruent left correct Normal 393
17 123 LeftLarger RTTaskExp Prime_1N Target_1N kjKIbhl GDiAgLM Congruent right correct Normal 474
17 124 LeftLarger RTTaskExp Prime_4N Target_1N dmGEFfH falMHEb Congruent right correct Normal 477
17 125 LeftLarger RTTaskExp Prime_4A Target_9N bCGejcF AaGMFhe Incongruent left correct Normal 608
17 126 LeftLarger RTTaskExp Prime_9A Target_4A kLfilKD IjhEDgB Incongruent right correct Normal 464
17 127 LeftLarger RTTaskExp Prime_1N Target_6N dIlDiEF hLcFDKe Incongruent left correct Normal 518
17 128 LeftLarger RTTaskExp Prime_6N Target_9A IcBmAEM hliHbda Congruent left correct Normal 546
17 129 LeftLarger RTTaskExp Prime_9N Target_4N EFjgeAM MhdiFka Incongruent right correct Normal 527
17 130 LeftLarger RTTaskExp Prime_9N Target_6A iaKhMLG ljKaFfH Congruent left correct Normal 592
17 131 LeftLarger RTTaskExp Prime_6A Target_6N MKaGLjB mbJdHfM Congruent left correct Normal 502
17 132 LeftLarger RTTaskExp Prime_4A Target_4A LlGKaAD fHIElDK Congruent right correct Normal 506
17 133 LeftLarger RTTaskExp Prime_6A Target_4N DaHibhK dlgHmMC Incongruent right correct Normal 527
17 134 LeftLarger RTTaskExp Prime_1N Target_1A IEeMGBK FmilgcM Congruent right correct Normal 515
17 135 LeftLarger RTTaskExp Prime_9A Target_1N CjkHfcb mjJdgGk Incongruent right correct Normal 504
17 136 LeftLarger RTTaskExp Prime_6N Target_1A JdICcjk fkieEgd Incongruent right correct Normal 453
17 137 LeftLarger RTTaskExp Prime_4N Target_4A ChciLJd jefEbJL Congruent right correct Normal 514
17 138 LeftLarger RTTaskExp Prime_4A Target_1A AlFCcfG kMGalcb Congruent right correct Normal 390
17 139 LeftLarger RTTaskExp Prime_9A Target_6N ACKEhbH iCaEjkc Congruent left correct Normal 772
17 140 LeftLarger RTTaskExp Prime_9N Target_9N mlEkJcg DMlkjHc Congruent left correct Normal 612
17 141 LeftLarger RTTaskExp Prime_9A Target_4N fBKDHcG hIkalEe Incongruent right correct Normal 573
17 142 LeftLarger RTTaskExp Prime_1A Target_1A CLKDhIH JHEbcGC Congruent right correct Normal 554
17 143 LeftLarger RTTaskExp Prime_9N Target_6N gdcEfCi CefjLmM Congruent right error Normal 694
17 144 LeftLarger RTTaskExp Prime_4N Target_6A AMKHLCg MkBlDch Incongruent left correct Normal 689
17 145 LeftLarger RTTaskExp Prime_1A Target_6N aIdmFgL FlbBJEc Incongruent left correct Normal 487
17 146 LeftLarger RTTaskExp Prime_4A Target_4N mlKbdAC KiLJDfG Congruent right correct Normal 597
17 147 LeftLarger RTTaskExp Prime_6N Target_6A EAGLjkm bALEhBG Congruent left correct Normal 877
17 148 LeftLarger RTTaskExp Prime_1N Target_4N iFHEdmA ADfeHCa Congruent right correct Normal 526
17 149 LeftLarger RTTaskExp Prime_9A Target_6A ldMKfcA JAgdlMI Congruent left correct Normal 504
17 150 LeftLarger RTTaskExp Prime_6N Target_4A fmCAcMH ljhkidA Incongruent right correct Normal 553
17 151 LeftLarger RTTaskExp Prime_1N Target_6A agLBcCM HkjIeBF Incongruent left correct Normal 606
17 152 LeftLarger RTTaskExp Prime_6A Target_9A mjiFCBJ HDKJfFe Congruent left correct Normal 802
17 153 LeftLarger RTTaskExp Prime_4A Target_6A LaEHkFJ IKeJdHi Incongruent left correct Normal 756
17 154 LeftLarger RTTaskExp Prime_4N Target_9A kmdLhgb KAakelC Incongruent left correct Normal 566
17 155 LeftLarger RTTaskExp Prime_6N Target_6N bFKlchm DBhaAIF Congruent left correct Normal 890
17 156 LeftLarger RTTaskExp Prime_6N Target_1N MJEdBGe KGeMBCE Incongruent right correct Normal 547
17 157 LeftLarger RTTaskExp Prime_9N Target_6N IbaFhlj BLghcfi Congruent left correct Late 1394
17 158 LeftLarger RTTaskExp Prime_9N Target_6N diFcGfg lkiKChc Congruent left correct Normal 457
17 159 LeftLarger RTTaskExp Prime_1A Target_6A bfGMIFH AjldHJf Incongruent left correct Normal 433
17 160 LeftLarger RTTaskExp Prime_4N Target_1A BAamHDj BAJDcEd Congruent right correct Normal 447
17 161 LeftLarger RTTaskExp Prime_9N Target_1N lBLiAFh cIlhJej Incongruent left error Normal 366
17 162 LeftLarger RTTaskExp Prime_9N Target_1N iDMLJkG dFheilA Incongruent left error Normal 459
17 163 LeftLarger RTTaskExp Prime_9N Target_1N kdFgEJe lGIEKLd Incongruent right correct Normal 526
17 164 LeftLarger RTTaskExp Prime_4N Target_9A lgELbif clHLdDa Incongruent left correct Normal 517
17 165 LeftLarger RTTaskExp Prime_6N Target_1A IEGdLce mlFdbCE Incongruent right correct Normal 438
17 166 LeftLarger RTTaskExp Prime_6A Target_9N ImeLBld AaDEKgH Congruent left correct Normal 463
17 167 LeftLarger RTTaskExp Prime_4N Target_4A HBaGKlg dlFkicI Congruent right correct Normal 433
17 168 LeftLarger RTTaskExp Prime_4A Target_6N heMgElb fgLFeBd Incongruent left correct Normal 537
17 169 LeftLarger RTTaskExp Prime_9A Target_1N DEBaJHm fdlaAGE Incongruent right correct Normal 526
17 170 LeftLarger RTTaskExp Prime_1A Target_6N gkmbeiB kAcdaHL Incongruent left correct Normal 445
17 171 LeftLarger RTTaskExp Prime_1A Target_1N biMIFLj BgCJGaI Congruent right correct Normal 536
17 172 LeftLarger RTTaskExp Prime_4N Target_4N cDlfjaH DbHMJGE Congruent right correct Normal 935
17 173 LeftLarger RTTaskExp Prime_4N Target_6A GdMchiF HEhiekB Incongruent left correct Normal 431
17 174 LeftLarger RTTaskExp Prime_1N Target_4N ABkemEK JafDLjh Congruent right correct Normal 441
17 175 LeftLarger RTTaskExp Prime_4A Target_1N bDaEejk FMkaHmj Congruent right correct Normal 553
17 176 LeftLarger RTTaskExp Prime_9N Target_1N lecIDCk miDbCcj Incongruent right correct Normal 508
17 177 LeftLarger RTTaskExp Prime_1N Target_1N abCFhge bAKDfeh Congruent right correct Normal 466
17 178 LeftLarger RTTaskExp Prime_6A Target_4N jAcCebf AckjMgd Incongruent right correct Normal 381
17 179 LeftLarger RTTaskExp Prime_1A Target_6A BbdlJmh MehGLfk Incongruent left correct Normal 479
17 180 LeftLarger RTTaskExp Prime_6A Target_9A DaFGMKC aAJMHBm Congruent left correct Normal 447
17 181 LeftLarger RTTaskExp Prime_1A Target_4N dLCmGck GFkJlAf Congruent right correct Normal 455
17 182 LeftLarger RTTaskExp Prime_9A Target_6N HIbEKfg KIDhBmf Congruent left correct Normal 644
17 183 LeftLarger RTTaskExp Prime_9A Target_9N FdHaLeh fmAIjea Congruent left correct Normal 508
17 184 LeftLarger RTTaskExp Prime_9N Target_1A fgcLDFd FikmKMD Incongruent right correct Normal 505
17 185 LeftLarger RTTaskExp Prime_9N Target_9N AgDiLmb iBlIJaD Congruent left correct Normal 453
17 186 LeftLarger RTTaskExp Prime_1N Target_6N KMCjHcf McCBjKA Incongruent right error Normal 653
17 187 LeftLarger RTTaskExp Prime_9A Target_9A cFfldag eKkjFDb Congruent left correct Normal 455
17 188 LeftLarger RTTaskExp Prime_6N Target_1N iKFhbgj FLBCMGb Incongruent right correct Normal 541
17 189 LeftLarger RTTaskExp Prime_4N Target_1A eAlgCkK GKimcIE Congruent left error Normal 443
17 190 LeftLarger RTTaskExp Prime_9N Target_9A jheEICD MLAGdeC Congruent left correct Normal 450
17 191 LeftLarger RTTaskExp Prime_9N Target_4A KJmhcjH IjAcGDk Incongruent right correct Normal 560
17 192 LeftLarger RTTaskExp Prime_1N Target_1A jJcLBCg CDHadkm Congruent left error Normal 418
17 193 LeftLarger RTTaskExp Prime_6N Target_6N gDiIMbF mJDMCIi Congruent left correct Normal 505
17 194 LeftLarger RTTaskExp Prime_6A Target_1N MgEJCLB dFGefkE Incongruent right correct Normal 474
17 195 LeftLarger RTTaskExp Prime_6A Target_4A bdlihIe kAJfmaD Incongruent right correct Normal 546
17 196 LeftLarger RTTaskExp Prime_9N Target_6A beHCDFd EcMalIf Congruent left correct Normal 623
17 197 LeftLarger RTTaskExp Prime_4A Target_9A EeAjkBd CaLjFGl Incongruent left correct Normal 559
17 198 LeftLarger RTTaskExp Prime_9A Target_1A kLGHbgl bEhaKBl Incongruent right correct Normal 483
17 199 LeftLarger RTTaskExp Prime_6A Target_6N IfMbDHG dIHMmbK Congruent left correct Normal 468
17 200 LeftLarger RTTaskExp Prime_6N Target_4N idMmcFH cJABeMi Incongruent right correct Normal 585
17 201 LeftLarger RTTaskExp Prime_1N Target_9A jlgIdkC hgEADCl Incongruent left correct Normal 456
17 202 LeftLarger RTTaskExp Prime_1A Target_9N EkclCIH iCFgGAa Incongruent left correct Normal 677
17 203 LeftLarger RTTaskExp Prime_1N Target_4A aibeECk makCAiH Congruent right correct Normal 573
17 204 LeftLarger RTTaskExp Prime_9A Target_4A kehfmEB gDbHBdm Incongruent right correct Normal 512
17 205 LeftLarger RTTaskExp Prime_6N Target_9N imdACKM hFjiMeg Congruent left correct Normal 453
17 206 LeftLarger RTTaskExp Prime_6N Target_6A FHCDhgA eAFLfIB Congruent left correct Normal 775
17 207 LeftLarger RTTaskExp Prime_4A Target_6A jMFCILH bJBiakh Incongruent left correct Normal 465
17 208 LeftLarger RTTaskExp Prime_1A Target_1A hEKblMg EJiDCKf Congruent right correct Normal 479
17 209 LeftLarger RTTaskExp Prime_4N Target_6N EFHlmfg FmkeBHJ Incongruent left correct Normal 456
17 210 LeftLarger RTTaskExp Prime_4A Target_9N hjJCFEa Lhmdbgf Incongruent left correct Normal 505
17 211 LeftLarger RTTaskExp Prime_6N Target_9A keAbHFh BMLdmfg Congruent left correct Normal 615
17 212 LeftLarger RTTaskExp Prime_6N Target_4A KdheJDc mdEKhlg Incongruent right correct Normal 564
17 213 LeftLarger RTTaskExp Prime_1N Target_9N DfkcAlb mFLEAji Incongruent left correct Normal 494
17 214 LeftLarger RTTaskExp Prime_4A Target_1A bjhgAGJ lGmakbF Congruent right correct Normal 497
17 215 LeftLarger RTTaskExp Prime_9A Target_6A MfLiGdc cCLDGKH Congruent left correct Normal 378
17 216 LeftLarger RTTaskExp Prime_6A Target_1A mlCadKc dLbCKBl Incongruent right correct Normal 502
17 217 LeftLarger RTTaskExp Prime_9N Target_6N agFhbAI AEkcFmB Congruent left correct Normal 539
17 218 LeftLarger RTTaskExp Prime_1A Target_4A gfDJbka LlaGhKD Congruent right correct Normal 511
17 219 LeftLarger RTTaskExp Prime_4A Target_4A CcBgKei BhJiLdE Congruent right correct Normal 556
17 220 LeftLarger RTTaskExp Prime_4N Target_1A EBiLeDc MfdEejI Congruent left error Normal 507
17 221 LeftLarger RTTaskExp Prime_9N Target_4N maFLlgD chGimBd Incongruent right correct Normal 570
17 222 LeftLarger RTTaskExp Prime_1A Target_9A IkbBdJh AMbFalE Incongruent left correct Normal 394
17 223 LeftLarger RTTaskExp Prime_9A Target_4N jCbKGFD DkAMchi Incongruent right correct Normal 487
17 224 LeftLarger RTTaskExp Prime_1N Target_6N bemJDGl LiAbaMm Incongruent right error Normal 587
17 225 LeftLarger RTTaskExp Prime_6A Target_6A fbkjHLA EmgfiBe Congruent left correct Normal 524
17 226 LeftLarger RTTaskExp Prime_4A Target_4N hkMCDjK fcAJeDh Congruent right correct Normal 442
17 227 LeftLarger RTTaskExp Prime_4N Target_9N eBaAMCd FJgEbLA Incongruent left correct Normal 501
17 228 LeftLarger RTTaskExp Prime_1N Target_6N EAbiJKh MfiaIde Incongruent right error Normal 489
17 229 LeftLarger RTTaskExp Prime_4N Target_1N hgMEBal JHdmBLK Congruent right correct Normal 681
17 230 LeftLarger RTTaskExp Prime_1N Target_6N dIeEHFa lEBhmkH Incongruent left correct Normal 622
17 231 LeftLarger RTTaskExp Prime_4N Target_1A jGEfhkm dKFgDAa Congruent right correct Normal 561
17 232 LeftLarger RTTaskExp Prime_1N Target_6A eFKcLjJ maDkLJb Incongruent left correct Normal 527
17 233 LeftLarger RTTaskExp Prime_1N Target_1A mCigdcI EdCaGKj Congruent right correct Normal 465
17 234 LeftLarger RTTaskExp Prime_9N Target_4N gFfKLDc kClaeGL Incongruent right correct Normal 491
17 235 LeftLarger RTTaskExp Prime_1N Target_6A hJDlEbF fhHiCEM Incongruent left correct Normal 537
17 236 LeftLarger RTTaskExp Prime_9N Target_9A HjEhJbK DjELifB Congruent left correct Normal 544
17 237 LeftLarger RTTaskExp Prime_6A Target_6A jmeBLkJ CkfBDbA Congruent right error Normal 508
17 238 LeftLarger RTTaskExp Prime_1A Target_1N IkmHdLe hCmBAjH Congruent right correct Normal 589
17 239 LeftLarger RTTaskExp Prime_4N Target_1N lhHFmIe GIbfKAl Congruent right correct Normal 501
17 240 LeftLarger RTTaskExp Prime_1A Target_6N fLGbkBH jmcfHIG Incongruent left correct Normal 671
17 241 LeftLarger RTTaskExp Prime_1N Target_6N eKGJDhi BHcimhM Incongruent left correct Normal 566
17 242 LeftLarger RTTaskExp Prime_4A Target_6A LDlIhCa FLIaGdb Incongruent left correct Normal 431
17 243 LeftLarger RTTaskExp Prime_9A Target_1A CmagBFI JBcgiCD Incongruent right correct Normal 511
17 244 LeftLarger RTTaskExp Prime_6N Target_6A jCLeGaA CJMIaLd Congruent left correct Normal 591
17 245 LeftLarger RTTaskExp Prime_9N Target_1A EAlMBIK leCJaBE Incongruent right correct Normal 499
17 246 LeftLarger RTTaskExp Prime_9N Target_9N lEMeGch MAFLfiG Congruent left correct Normal 568
17 247 LeftLarger RTTaskExp Prime_9N Target_4A fbeGLAH KjLMmgA Incongruent right correct Normal 477
17 248 LeftLarger RTTaskExp Prime_4A Target_1A hKABbGl FJjgIDk Congruent left error Normal 390
17 249 LeftLarger RTTaskExp Prime_9A Target_9N gAEBGFm mcklDCf Congruent left correct Normal 557
17 250 LeftLarger RTTaskExp Prime_9N Target_6A BDLdCGI HmfjcLJ Congruent left correct Normal 748
17 251 LeftLarger RTTaskExp Prime_4N Target_4N fcGDKJe eLkidJa Congruent right correct Normal 584
17 252 LeftLarger RTTaskExp Prime_4A Target_9N JLjDkaA GCkHJMl Incongruent left correct Normal 448
17 253 LeftLarger RTTaskExp Prime_4N Target_6N KDJgFGb aHDdEKm Incongruent left correct Normal 554
17 254 LeftLarger RTTaskExp Prime_9A Target_1N FKHaAfM lLKbDmk Incongruent right correct Normal 629
17 255 LeftLarger RTTaskExp Prime_9N Target_6N iaAeBmH DcEGamg Congruent right error Normal 607
17 256 LeftLarger RTTaskExp Prime_6A Target_4N dECmGga FAmGJcM Incongruent right correct Normal 529
17 257 LeftLarger RTTaskExp Prime_1A Target_9A fcaGbmA DbaHcEl Incongruent left correct Normal 468
17 258 LeftLarger RTTaskExp Prime_1N Target_9A GbjKDLf fCIDHdL Incongruent left correct Normal 527
17 259 LeftLarger RTTaskExp Prime_1A Target_4A BacDihM fheGEAg Congruent right correct Normal 513
17 260 LeftLarger RTTaskExp Prime_6A Target_6A KehHbAk LMcbJjA Congruent left correct Normal 522
17 261 LeftLarger RTTaskExp Prime_1N Target_4N fEbmAgh HCaGjcd Congruent right correct Normal 439
17 262 LeftLarger RTTaskExp Prime_1N Target_1N DIabHkG hHMJIgG Congruent right correct Normal 508
17 263 LeftLarger RTTaskExp Prime_6N Target_6N CiFadGk MaHCkDm Congruent left correct Normal 496
17 264 LeftLarger RTTaskExp Prime_6A Target_1N bCdmiDa eFhAMfC Incongruent right correct Normal 455
17 265 LeftLarger RTTaskExp Prime_9A Target_9A iGgJmIH MfhgjJC Congruent left correct Normal 429
17 266 LeftLarger RTTaskExp Prime_4N Target_6A FmilbBE gJiHMlj Incongruent left correct Normal 491
17 267 LeftLarger RTTaskExp Prime_6N Target_9A mhiElbd HJaeMDb Congruent left correct Normal 508
17 268 LeftLarger RTTaskExp Prime_4A Target_4N dBJDIcF ihmACce Congruent right correct Normal 524
17 269 LeftLarger RTTaskExp Prime_1N Target_4A bLekdBm bGgimLE Congruent right correct Normal 492
17 270 LeftLarger RTTaskExp Prime_6N Target_9N mlLJcEk glfMLem Congruent left correct Normal 428
17 271 LeftLarger RTTaskExp Prime_6A Target_1A eHcEBbm CGiDflh Incongruent right correct Normal 418
17 272 LeftLarger RTTaskExp Prime_6N Target_4A jDHEBgF hDafleM Incongruent right correct Normal 507
17 273 LeftLarger RTTaskExp Prime_9A Target_6N DFKGAMB iJlamMk Congruent left correct Normal 633
17 274 LeftLarger RTTaskExp Prime_4A Target_4A KBjiegm fJejhKA Congruent right correct Normal 487
17 275 LeftLarger RTTaskExp Prime_4A Target_6N Eedbcma GLBgFkE Incongruent left correct Normal 466
17 276 LeftLarger RTTaskExp Prime_1N Target_1A ClkiHgM JkDfbFI Congruent right correct Normal 444
17 277 LeftLarger RTTaskExp Prime_6A Target_9A gKdhCLM Fjkifdm Congruent left correct Normal 460
17 278 LeftLarger RTTaskExp Prime_4A Target_1N hAmfHMJ aGCfMlH Congruent right correct Normal 460
17 279 LeftLarger RTTaskExp Prime_4N Target_1A lhLBigd IbLAhBa Congruent right correct Normal 497
17 280 LeftLarger RTTaskExp Prime_1N Target_9N cjIGeFH LBbkDGf Incongruent left correct Normal 482
17 281 LeftLarger RTTaskExp Prime_9A Target_6A mfLabej DgkcLhd Congruent left correct Normal 707
17 282 LeftLarger RTTaskExp Prime_9A Target_4A IkmGagj FBkgMbm Incongruent left error Normal 467
17 283 LeftLarger RTTaskExp Prime_6A Target_4A eJmGfgA jmHifKg Incongruent left error Normal 764
17 284 LeftLarger RTTaskExp Prime_9N Target_6N fcMkGHK mDgMblB Congruent left correct Normal 468
17 285 LeftLarger RTTaskExp Prime_4N Target_9N lgmihIc fIKAcJB Incongruent right error Normal 493
17 286 LeftLarger RTTaskExp Prime_1A Target_4N cahEAgH LDEJgAd Congruent right correct Normal 816
17 287 LeftLarger RTTaskExp Prime_6N Target_1N HDkCEJA GFfjakb Incongruent right correct Normal 616
17 288 LeftLarger RTTaskExp Prime_1A Target_1A gIdHMmc dLClfBK Congruent right correct Normal 447
17 289 LeftLarger RTTaskExp Prime_6A Target_4A CkFiJje IbhMjlF Incongruent right correct Normal 497
17 290 LeftLarger RTTaskExp Prime_1A Target_6A giKamGB LJhlMdm Incongruent left correct Normal 629
17 291 LeftLarger RTTaskExp Prime_6A Target_9N mIdcBJK jgJFhIG Congruent left correct Normal 479
17 292 LeftLarger RTTaskExp Prime_4A Target_1A JFECDKA Achlbij Congruent right correct Normal 564
17 293 LeftLarger RTTaskExp Prime_4N Target_9A imcKEHL MemlbCa Incongruent left correct Normal 580
17 294 LeftLarger RTTaskExp Prime_6A Target_6N CkAibGf dGHAgMC Congruent left correct Normal 923
17 295 LeftLarger RTTaskExp Prime_1A Target_9N CHgadLM kmLJfBA Incongruent left correct Normal 546
17 296 LeftLarger RTTaskExp Prime_4A Target_9A AGfMkai bchBmGd Incongruent left correct Normal 516
17 297 LeftLarger RTTaskExp Prime_9A Target_4A FEIkBlb MjgLIiD Incongruent right correct Normal 615
17 298 LeftLarger RTTaskExp Prime_6N Target_4N dJLhejK keiDHIf Incongruent right correct Normal 744
17 299 LeftLarger RTTaskExp Prime_9N Target_1N IHdfFiG iILbHCc Incongruent right correct Normal 741
17 300 LeftLarger RTTaskExp Prime_4N Target_4A DKdEabk mEJCeIA Congruent right correct Normal 749
17 301 LeftLarger RTTaskExp Prime_6N Target_1A MGBeFkf cafdElC Incongruent right correct Normal 557
17 302 LeftLarger RTTaskExp Prime_9A Target_4N lAIEajG cBagHlD Incongruent right correct Late 1265
17 303 LeftLarger RTTaskExp Prime_4N Target_9N BeDCcda idBfelA Incongruent right error Normal 398
17 304 LeftLarger RTTaskExp Prime_9A Target_4N iJkEeLl jfeDBbK Incongruent right correct Normal 514
17 305 LeftLarger RTTaskExp Prime_4N Target_9N DlMGHch KICGbBc Incongruent left correct Normal 610
18 24 LeftSmaller RTTaskExp Prime_1A Target_6A hejDkKd ejLICMc Incongruent left error Normal 355
18 25 LeftSmaller RTTaskExp Prime_9N Target_6A DeGLfaH iCcDHLj Congruent right correct Normal 362
18 26 LeftSmaller RTTaskExp Prime_9A Target_1N ekJLhlE CFfkIHL Incongruent left correct Normal 465
18 27 LeftSmaller RTTaskExp Prime_4A Target_4A kHAMjJg ilEbMmJ Congruent left correct Normal 408
18 28 LeftSmaller RTTaskExp Prime_6A Target_1N ecAaMLE aiABKJf Incongruent right error Normal 319
18 29 LeftSmaller RTTaskExp Prime_9A Target_6N bmgMdjD dhKGHfI Congruent right correct Normal 368
18 30 LeftSmaller RTTaskExp Prime_1A Target_9N CeHLgAa dgkCiJH Incongruent right correct Normal 372
18 31 LeftSmaller RTTaskExp Prime_6A Target_4N AdGjmFe GjmeCbE Incongruent left correct Normal 451
18 32 LeftSmaller RTTaskExp Prime_9A Target_9N FBMJCAh MBEHJbA Congruent left error Normal 474
18 33 LeftSmaller RTTaskExp Prime_6N Target_4A fCLaGdI LEebjKM Incongruent left correct Normal 393
18 34 LeftSmaller RTTaskExp Prime_1A Target_4A EGiFAKL FKefIAj Congruent left correct Normal 426
18 35 LeftSmaller RTTaskExp Prime_6N Target_1N LeflAmg LGMAKFl Incongruent right error Normal 376
18 36 LeftSmaller RTTaskExp Prime_6A Target_9N HFBCDLe MhFiDHl Congruent right correct Normal 387
18 37 LeftSmaller RTTaskExp Prime_6A Target_9A cgBmHLe kjFcICK Congruent right correct Normal 403
18 38 LeftSmaller RTTaskExp Prime_6N Target_1A khLgaKD leAihJa Incongruent left correct Normal 370
18 39 LeftSmaller RTTaskExp Prime_6N Target_4N bBHljfK AGagkfF Incongruent left correct Normal 509
18 40 LeftSmaller RTTaskExp Prime_4A Target_9A KAMDIlg JekCcEl Incongruent right correct Normal 329
18 41 LeftSmaller RTTaskExp Prime_9A Target_4A fDmAClE GJBkECm Incongruent left correct Normal 427
18 42 LeftSmaller RTTaskExp Prime_4A Target_1A LKeMdFh iLjJaAf Congruent left correct Normal 409
18 43 LeftSmaller RTTaskExp Prime_1N Target_6N lijgbJc dMLmcaA Incongruent right correct Normal 456
18 44 LeftSmaller RTTaskExp Prime_6A Target_1N BkjLFJA GidHkIb Incongruent right error Normal 325
18 45 LeftSmaller RTTaskExp Prime_6N Target_1N hgMFjBa fkdjIlg Incongruent left correct Normal 385
18 46 LeftSmaller RTTaskExp Prime_6A Target_4A KlAcjfb BGFLbJc Incongruent left correct Normal 522
18 47 LeftSmaller RTTaskExp Prime_4A Target_4N LiHJbjg mDFfHCd Congruent right error Normal 357
18 48 LeftSmaller RTTaskExp Prime_6A Target_6A eHEDGdI GhaceID Congruent right correct Normal 408
18 49 LeftSmaller RTTaskExp Prime_4A Target_6A gafhACM CmEieGK Incongruent right correct Normal 423
18 50 LeftSmaller RTTaskExp Prime_1A Target_6N agjHckI EgDBljK Incongruent right correct Normal 454
18 51 LeftSmaller RTTaskExp Prime_9A Target_6A deljAiG bjFIMCG Congruent right correct Normal 401
18 52 LeftSmaller RTTaskExp Prime_4N Target_6N BkMGbDe DCfdLFJ Incongruent right correct Normal 429
18 53 LeftSmaller RTTaskExp Prime_1N Target_6A FlBmkeJ hamHdkj Incongruent left error Normal 328
18 54 LeftSmaller RTTaskExp Prime_1A Target_1A FlDKgIA DeaihHF Congruent left correct Normal 392
18 55 LeftSmaller RTTaskExp Prime_4N Target_6A MgblBkh FMdKmcG Incongruent right correct Normal 419
18 56 LeftSmaller RTTaskExp Prime_6A Target_1A jElHDGB iKAJBbI Incongruent left correct Normal 450
18 57 LeftSmaller RTTaskExp Prime_1N Target_9N IbfBjck mDeFdLB Incongruent right correct Normal 428
18 58 LeftSmaller RTTaskExp Prime_4N Target_9A fKGkJEL FdilegE Incongruent right correct Normal 355
18 59 LeftSmaller RTTaskExp Prime_9N Target_1A cAilmEk FlBCbGc Incongruent left correct Normal 394
18 60 LeftSmaller RTTaskExp Prime_4A Target_9N bKJLclH gKhiFdG Incongruent right correct Normal 355
18 61 LeftSmaller RTTaskExp Prime_6N Target_9N lJmbCiH fjiMhBg Congruent right correct Normal 361
18 62 LeftSmaller RTTaskExp Prime_4N Target_1N mbFkfDC GKBiDLI Congruent left correct Normal 400
18 63 LeftSmaller RTTaskExp Prime_4N Target_9N FeKLdil lbBkGFg Incongruent right correct Normal 427
18 64 LeftSmaller RTTaskExp Prime_1A Target_4N bMeBdEF lMJbKac Congruent left correct Normal 473
18 65 LeftSmaller RTTaskExp Prime_1N Target_6A DHjgfkI bIeDmEG Incongruent right correct Normal 459
18 66 LeftSmaller RTTaskExp Prime_6N Target_9A CGfeblI dkBAfbJ Congruent right correct Normal 333
18 67 LeftSmaller RTTaskExp Prime_1N Target_4N McbEIkg abmicgI Congruent left correct Normal 564
18 68 LeftSmaller RTTaskExp Prime_1N Target_4A iFJElLj HledGJK Congruent left correct Normal 473
18 69 LeftSmaller RTTaskExp Prime_4A Target_1N bkeAIhB JjFCHdD Congruent right error Normal 333
18 70 LeftSmaller RTTaskExp Prime_6A Target_6N iMleJIH AgJLfEm Congruent right correct Normal 545
18 71 LeftSmaller RTTaskExp Prime_1A Target_9A EeHjiIc bGDjIef Incongruent right correct Normal 395
18 72 LeftSmaller RTTaskExp Prime_9N Target_6N halCMfg keMFmbc Congruent right correct Normal 392
18 73 LeftSmaller RTTaskExp Prime_9A Target_1A jmGAhfJ hAkDjKf Incongruent left correct Normal 365
18 74 LeftSmaller RTTaskExp Prime_9N Target_4N MadcBhG BDabLFm Incongruent right error Normal 575
18 75 LeftSmaller RTTaskExp Prime_1N Target_9A EegjFaM fLEiJal Incongruent right correct Normal 406
18 76 LeftSmaller RTTaskExp Prime_4N Target_4A aBjhJmF LEJKadi Congruent left correct Normal 473
18 77 LeftSmaller RTTaskExp Prime_1N Target_1N dlmDjch LcgFjaH Congruent right error Normal 407
18 78 LeftSmaller RTTaskExp Prime_4A Target_4N bGeahLH DhKGgkm Congruent left correct Normal 503
18 79 LeftSmaller RTTaskExp Prime_1N Target_1N KIjhAJb IdmFiKl Congruent left correct Normal 423
18 80 LeftSmaller RTTaskExp Prime_9A Target_9N AbCcgBI mkIJbKl Congruent right correct Normal 323
18 81 LeftSmaller RTTaskExp Prime_9N Target_9N BKCfLjJ IdFLjEK Congruent right correct Normal 364
18 82 LeftSmaller RTTaskExp Prime_6N Target_6A jeJfgbl fKdDeCF Congruent right correct Normal 394
18 83 LeftSmaller RTTaskExp Prime_9A Target_4N CLmfBij kEbHCaF Incongruent left correct Normal 428
18 84 LeftSmaller RTTaskExp Prime_4A Target_6N jhBkEce lmeKAgL Incongruent right correct Normal 435
18 85 LeftSmaller RTTaskExp Prime_4N Target_4N ELFfeDl MjCdlhJ Congruent right error Normal 428
18 86 LeftSmaller RTTaskExp Prime_9N Target_9A giAkMDa chCBmFE Congruent right correct Normal 353
18 87 LeftSmaller RTTaskExp Prime_4N Target_4N FkHDEJK dfAKFLJ Congruent left correct Normal 347
18 88 LeftSmaller RTTaskExp Prime_9A Target_9A jBClAem lCgGALI Congruent right correct Normal 371
18 89 LeftSmaller RTTaskExp Prime_1A Target_1N bdCfMkG aAFkiJl Congruent left correct Normal 400
18 90 LeftSmaller RTTaskExp Prime_1A Target_6A kECFhMj LimDkgj Incongruent right correct Normal 280
18 91 LeftSmaller RTTaskExp Prime_6N Target_6N IigEbeK AFKDiLI Congruent right correct Normal 342
18 92 LeftSmaller RTTaskExp Prime_9N Target_1N FLDMjai JBbFIKc Incongruent left correct Normal 531
18 93 LeftSmaller RTTaskExp Prime_6A Target_1N DBfAEHC keJfMbB Incongruent left correct Normal 462
18 94 LeftSmaller RTTaskExp Prime_4A Target_1N jAJfHBh KmjHFdh Congruent left correct Normal 461
18 95 LeftSmaller RTTaskExp Prime_9N Target_4N kadAKcl MalDFKk Incongruent right error Normal 350
18 96 LeftSmaller RTTaskExp Prime_9N Target_4N GjHAfmM cLdlfGi Incongruent left correct Normal 504
18 97 LeftSmaller RTTaskExp Prime_4N Target_1A BCleELD EAbdgcf Congruent left correct Normal 380
18 98 LeftSmaller RTTaskExp Prime_9N Target_4A DIKGJhL aGHBcfl Incongruent left correct Normal 417
18 99 LeftSmaller RTTaskExp Prime_1N Target_1A HjdgAhJ fiaFJbK Congruent left correct Normal 344
18 100 LeftSmaller RTTaskExp Prime_6A Target_1A kibELaC EBGACfg Incongruent left correct Normal 361
18 101 LeftSmaller RTTaskExp Prime_1N Target_6N emaBCdg KGFheJd Incongruent right correct Normal 336
18 102 LeftSmaller RTTaskExp Prime_9N Target_1N hfdMgja BbkAGfH Incongruent left correct Normal 437
18 103 LeftSmaller RTTaskExp Prime_6A Target_6N bJgfFae JgDikBd Congruent right correct Normal 304
18 104 LeftSmaller RTTaskExp Prime_4A Target_4N jkliDmK EaAgcKI Congruent left correct Normal 370
18 105 LeftSmaller RTTaskExp Prime_1N Target_9N IMHGjJm KglEbBA Incongruent left error Normal 292
18 106 LeftSmaller RTTaskExp Prime_6N Target_1A aHLEIAl EmeClkL Incongruent left correct Normal 349
18 107 LeftSmaller RTTaskExp Prime_1N Target_9A jEbJHfl JiKDLhM Incongruent right correct Normal 344
18 108 LeftSmaller RTTaskExp Prime_1N Target_4N FEjCGMc DCGKBhM Congruent left correct Normal 450
18 109 LeftSmaller RTTaskExp Prime_4N Target_4A KHCJhaF khBICcG Congruent left correct Normal 341
18 110 LeftSmaller RTTaskExp Prime_1N Target_1N LjkCDJH fBHFgkA Congruent left correct Normal 454
18 111 LeftSmaller RTTaskExp Prime_4A Target_6A alJjFcb bJCELFG Incongruent right correct Normal 387
18 112 LeftSmaller RTTaskExp Prime_9A Target_6N HCBDbgM cFjgMeh Congruent right correct Normal 453
18 113 LeftSmaller RTTaskExp Prime_9N Target_9N eJlghij lFhCHeM Congruent right correct Normal 359
18 114 LeftSmaller RTTaskExp Prime_4N Target_4N ljJAHbk cKkJjlf Congruent left correct Normal 395
18 115 LeftSmaller RTTaskExp Prime_6N Target_9N lagdDef DjlFegf Congruent right correct Normal 339
18 116 LeftSmaller RTTaskExp Prime_1A Target_6N gmMAbLa hBajEMI Incongruent right correct Normal 366
18 117 LeftSmaller RTTaskExp Prime_9A Target_1A fmihBeF gIhfBGm Incongruent left correct Normal 338
18 118 LeftSmaller RTTaskExp Prime_9A Target_6A CaBGfLi BaAClcG Congruent right correct Normal 263
18 119 LeftSmaller RTTaskExp Prime_4A Target_4A DjGIecL EihKMCH Congruent left correct Normal 335
18 120 LeftSmaller RTTaskExp Prime_1N Target_9N eCBfbIJ aMikEBb Incongruent right correct Normal 409
18 121 LeftSmaller RTTaskExp Prime_4A Target_9A glAjeaD dHlBDif Incongruent right correct Normal 337
18 122 LeftSmaller RTTaskExp Prime_1A Target_6A DBfeaJA CfceiKk Incongruent right correct Normal 330
18 123 LeftSmaller RTTaskExp Prime_1A Target_9N lmAjEbM mEAHbhg Incongruent right correct Normal 330
18 124 LeftSmaller RTTaskExp Prime_4N Target_9N AamGJgC BmDjdJK Incongruent right correct Normal 376
18 125 LeftSmaller RTTaskExp Prime_4N Target_6A DhFgAfB lFhjdGk Incongruent right correct Normal 367
18 126 LeftSmaller RTTaskExp Prime_9N Target_6A gkfeFCJ BaJDLEd Congruent right correct Normal 270
18 127 LeftSmaller RTTaskExp Prime_4A Target_1A jageAib kHFhIeG Congruent left correct Normal 285
18 128 LeftSmaller RTTaskExp Prime_6A Target_1N JKgeBHb cbhCaBD Incongruent right error Normal 349
18 129 LeftSmaller RTTaskExp Prime_6N Target_4A fehacbl DldimKI Incongruent right error Normal 382
18 130 LeftSmaller RTTaskExp Prime_6N Target_6A mkhGAJj jbEFKLd Congruent left error Normal 348
18 131 LeftSmaller RTTaskExp Prime_9A Target_9A dKaIHGb hcAmCEj Congruent right correct Normal 357
18 132 LeftSmaller RTTaskExp Prime_9N Target_6N KBdDJEf LclGaHj Congruent right correct Normal 388
18 133 LeftSmaller RTTaskExp Prime_4N Target_1N KIjAmMb hkMcKEf Congruent left correct Normal 422
18 134 LeftSmaller RTTaskExp Prime_6N Target_6A EmaAIjF FcKhLij Congruent right correct Normal 352
18 135 LeftSmaller RTTaskExp Prime_9A Target_1N bKmMBDI LAfMeKm Incongruent right error Normal 315
18 136 LeftSmaller RTTaskExp Prime_9A Target_4A fAKbiBm aGckJhA Incongruent left correct Normal 432
18 137 LeftSmaller RTTaskExp Prime_1A Target_1N fMdIeHg KjlFiLM Congruent left correct Normal 355
18 138 LeftSmaller RTTaskExp Prime_6N Target_9A KHBmJdI IDdFegK Congruent right correct Normal 240
18 139 LeftSmaller RTTaskExp Prime_4A Target_6N IHMKfjJ bCLIcim Incongruent right correct Normal 407
18 140 LeftSmaller RTTaskExp Prime_4N Target_6N KGldAFB hIaEmAc Incongruent right correct Normal 373
18 141 LeftSmaller RTTaskExp Prime_1A Target_4N keabKJC BmAfhgD Congruent right error Normal 273
18 142 LeftSmaller RTTaskExp Prime_9N Target_4N jEkaiCd daCEMcb Incongruent right error Normal 306
18 143 LeftSmaller RTTaskExp Prime_1A Target_4N BgDFAGI MBbhjam Congruent left correct Normal 478
18 144 LeftSmaller RTTaskExp Prime_1A Target_1A ICGFiLf IljgDeC Congruent left correct Normal 526
18 145 LeftSmaller RTTaskExp Prime_1A Target_9A FLBAcdE fJaLgAE Incongruent right correct Normal 300
18 146 LeftSmaller RTTaskExp Prime_1A Target_4A JcGeiCH fHAJjMi Congruent left correct Normal 384
18 147 LeftSmaller RTTaskExp Prime_6A Target_1N gDCfcIK kemLgib Incongruent right error Normal 374
18 148 LeftSmaller RTTaskExp Prime_6N Target_6N DFAhbIH mbkdEhA Congruent right correct Normal 343
18 149 LeftSmaller RTTaskExp Prime_9N Target_4A idDJalH aBFCJHl Incongruent left correct Normal 377
18 150 LeftSmaller RTTaskExp Prime_6A Target_4N DgEFfkG aFmHiLI Incongruent right error Normal 371
18 151 LeftSmaller RTTaskExp Prime_6A Target_9N JcECjdh mcgdHFL Congruent right correct Normal 371
18 152 LeftSmaller RTTaskExp Prime_6N Target_4A IdGjMmJ iDCEbMK Incongruent left correct Normal 362
18 153 LeftSmaller RTTaskExp Prime_9A Target_4N ighHclI ihdcMfI Incongruent left correct Normal 388
18 154 LeftSmaller RTTaskExp Prime_6N Target_1N MLclKdk eEkAdgC Incongruent left correct Normal 484
18 155 LeftSmaller RTTaskExp Prime_6A Target_6A iEeIFBh AlChiBg Congruent right correct Normal 396
18 156 LeftSmaller RTTaskExp Prime_4A Target_9N BlGeDgM mHlhMki Incongruent right correct Normal 425
18 157 LeftSmaller RTTaskExp Prime_1N Target_6A jLlAbEm CMHGkdA Incongruent right correct Normal 409
18 158 LeftSmaller RTTaskExp Prime_1N Target_4A CBalGEK cHDMjIf Congruent left correct Normal 285
18 159 LeftSmaller RTTaskExp Prime_6A Target_9A dIeFHLJ cehbHAC Congruent right correct Normal 398
18 160 LeftSmaller RTTaskExp Prime_4N Target_1A ijmdJeD HEeMlcB Congruent left correct Normal 335
18 161 LeftSmaller RTTaskExp Prime_4N Target_9A BHFDLEl ecKkGlf Incongruent right correct Normal 449
18 162 LeftSmaller RTTaskExp Prime_6N Target_4N mBeGHkM JgDkdcM Incongruent left correct Normal 364
18 163 LeftSmaller RTTaskExp Prime_9N Target_9A MeEcJgf GbAJIDk Congruent right correct Normal 332
18 164 LeftSmaller RTTaskExp Prime_6A Target_4A hCdleME eJaDHIG Incongruent left correct Normal 376
18 165 LeftSmaller RTTaskExp Prime_9A Target_9N BHFabDm khCLcbA Congruent right correct Normal 394
18 166 LeftSmaller RTTaskExp Prime_4A Target_1N IbHfEBj DFljhed Congruent left correct Normal 305
18 167 LeftSmaller RTTaskExp Prime_9N Target_4N haBIACd BafJdLk Incongruent right error Normal 397
18 168 LeftSmaller RTTaskExp Prime_9A Target_1N IHDAcLb IieHbfk Incongruent right error Normal 307
18 169 LeftSmaller RTTaskExp Prime_6A Target_1N imlAKIb KkLiBAf Incongruent left correct Normal 405
18 170 LeftSmaller RTTaskExp Prime_6A Target_4N cCDfaji BFmDIAE Incongruent left correct Normal 391
18 171 LeftSmaller RTTaskExp Prime_9A Target_1N bILMmAl AhMfiIJ Incongruent right error Normal 349
18 172 LeftSmaller RTTaskExp Prime_1N Target_1A malHBKA gHGBDLi Congruent left correct Normal 383
18 173 LeftSmaller RTTaskExp Prime_9N Target_1A AkDcHgf JkbGEFA Incongruent left correct Normal 386
18 174 LeftSmaller RTTaskExp Prime_9A Target_1N FciCkgl ckgLlDB Incongruent left correct Normal 374
18 175 LeftSmaller RTTaskExp Prime_9N Target_4N ajmCLig EGfJjHm Incongruent left correct Normal 515
18 176 LeftSmaller RTTaskExp Prime_6A Target_1A LCdGBHe BhbGLEK Incongruent left correct Normal 365
18 177 LeftSmaller RTTaskExp Prime_6A Target_1N BcdfAei MaIlcfd Incongruent left correct Normal 369
18 178 LeftSmaller RTTaskExp Prime_9N Target_4N LEMHhFg ldbKfjF Incongruent right error Normal 344
18 179 LeftSmaller RTTaskExp Prime_4N Target_6N hkfdJlF fdMaJlh Incongruent right correct Normal 463
18 180 LeftSmaller RTTaskExp Prime_6N Target_4N ibIcBam MFhEdLj Incongruent left correct Normal 376
18 181 LeftSmaller RTTaskExp Prime_9A Target_9N HGgcCJA mihgKdf Congruent right correct Normal 412
18 182 LeftSmaller RTTaskExp Prime_6N Target_9N BLehMjC CLjKcbF Congruent right correct Normal 420
18 183 LeftSmaller RTTaskExp Prime_9N Target_6N FBIKmHA elbkJHm Congruent right correct Normal 377
18 184 LeftSmaller RTTaskExp Prime_6N Target_9A kbGcdDg DaFLKgC Congruent left error Normal 358
18 185 LeftSmaller RTTaskExp Prime_1A Target_4N KCJHbaM IAaFDGJ Congruent left correct Normal 468
18 186 LeftSmaller RTTaskExp Prime_6A Target_9A MbhKHEC fGgIhFm Congruent right correct Normal 422
18 187 LeftSmaller RTTaskExp Prime_4N Target_9N aAHBfbl CIcfHAe Incongruent right correct Normal 374
18 188 LeftSmaller RTTaskExp Prime_4A Target_4N ehgGIcM JeLEBfk Congruent left correct Normal 446
18 189 LeftSmaller RTTaskExp Prime_9A Target_4A iaEJkKd KicfgFh Incongruent left correct Normal 399
18 190 LeftSmaller RTTaskExp Prime_6N Target_9A BmHDMkb cDhlgGF Congruent right correct Normal 315
18 191 LeftSmaller RTTaskExp Prime_4A Target_1A fjedcCI GjkLAKJ Congruent left correct Normal 364
18 192 LeftSmaller RTTaskExp Prime_6A Target_6A JLFkAKH IGdLgKh Congruent right correct Normal 416
18 193 LeftSmaller RTTaskExp Prime_9A Target_1A DbElGkF cDeFHdk Incongruent left correct Normal 467
18 194 LeftSmaller RTTaskExp Prime_4N Target_9A MLJdKhA IcJKlGi Incongruent right correct Normal 371
18 195 LeftSmaller RTTaskExp Prime_9A Target_6A kMbdHmF mAKeIcC Congruent right correct Normal 319
18 196 LeftSmaller RTTaskExp Prime_4N Target_6A gIKlmik gjIiDJh Incongruent right correct Normal 423
18 197 LeftSmaller RTTaskExp Prime_6N Target_4A JDBbKmC kIHmhgL Incongruent left correct Normal 393
18 198 LeftSmaller RTTaskExp Prime_4N Target_4N hMEGkbj ehjHabF Congruent left correct Normal 445
18 199 LeftSmaller RTTaskExp Prime_1N Target_6A GHgeDJm bHMaLiJ Incongruent right correct Normal 341
18 200 LeftSmaller RTTaskExp Prime_4A Target_4A dHFmcgC GihfAjd Congruent left correct Normal 393
18 201 LeftSmaller RTTaskExp Prime_1N Target_9A cCHBMfK LHckAIK Incongruent right correct Normal 346
18 202 LeftSmaller RTTaskExp Prime_1N Target_4N AiDkcML HGemJlM Congruent left correct Normal 336
18 203 LeftSmaller RTTaskExp Prime_4N Target_4A hALIeBd bKfdMHL Congruent left correct Normal 437
18 204 LeftSmaller RTTaskExp Prime_9N Target_6A hBCjlcb GLHjAlK Congruent right correct Normal 427
18 205 LeftSmaller RTTaskExp Prime_6A Target_4A KFedMmk jBkDhbG Incongruent left correct Normal 400
18 206 LeftSmaller RTTaskExp Prime_4N Target_1N JbFEkIH bFdiEHG Congruent left correct Normal 470
18 207 LeftSmaller RTTaskExp Prime_6N Target_6A HhfKFGl LlcijBG Congruent right correct Normal 360
18 208 LeftSmaller RTTaskExp Prime_9N Target_1A DfLjBiH IkhDmKb Incongruent left correct Normal 325
18 209 LeftSmaller RTTaskExp Prime_6N Target_6N bGFJkDi JkMeGKi Congruent right correct Normal 335
18 210 LeftSmaller RTTaskExp Prime_9A Target_6N lEAHDdg mlKkGdH Congruent right correct Normal 289
18 211 LeftSmaller RTTaskExp Prime_1A Target_6N ELflHce bekIHjJ Incongruent right correct Normal 356
18 212 LeftSmaller RTTaskExp Prime_9N Target_4N elkaACj bjEiIfH Incongruent left correct Normal 335
18 213 LeftSmaller RTTaskExp Prime_1N Target_1A bajiJIk bFfmGkA Congruent left correct Normal 362
18 214 LeftSmaller RTTaskExp Prime_6N Target_1A KkmMHfJ JjcGAmg Incongruent left correct Normal 354
18 215 LeftSmaller RTTaskExp Prime_6A Target_6N bjAFgDd MkmhELG Congruent right correct Normal 253
18 216 LeftSmaller RTTaskExp Prime_1A Target_1N LGkJMDF klechFm Congruent right error Normal 350
18 217 LeftSmaller RTTaskExp Prime_9N Target_9A AGhlFKE eEdkLmH Congruent right correct Normal 287
18 218 LeftSmaller RTTaskExp Prime_4A Target_1N lJHGMgA hMKEFBA Congruent left correct Normal 395
18 219 LeftSmaller RTTaskExp Prime_6A Target_4N GmkKbgB EdHFLmM Incongruent left correct Normal 375
18 220 LeftSmaller RTTaskExp Prime_6A Target_9N IAKjgml haFbBke Congruent right correct Normal 265
18 221 LeftSmaller RTTaskExp Prime_6N Target_1N ljhIaBJ edCgJcl Incongruent left correct Normal 426
18 222 LeftSmaller RTTaskExp Prime_1N Target_1N fBGdFCD ChHKGAF Congruent left correct Normal 376
18 223 LeftSmaller RTTaskExp Prime_1A Target_1A jiHkDeM faGEeIM Congruent left correct Normal 409
18 224 LeftSmaller RTTaskExp Prime_1A Target_9A CBFKMdH mLdceGJ Incongruent left error Normal 281
18 225 LeftSmaller RTTaskExp Prime_9A Target_1N cLCBhAe DbLgGCd Incongruent left correct Normal 427
18 226 LeftSmaller RTTaskExp Prime_9A Target_4N bAGeDME MjIbKCL Incongruent right error Normal 299
18 227 LeftSmaller RTTaskExp Prime_1N Target_4A FGdcaHJ GeJgBih Congruent left correct Normal 403
18 228 LeftSmaller RTTaskExp Prime_9N Target_9N mKjfJFi FCdcELI Congruent right correct Normal 275
18 229 LeftSmaller RTTaskExp Prime_9N Target_4A FCblkJL KmchlgD Incongruent left correct Normal 401
18 230 LeftSmaller RTTaskExp Prime_1A Target_6A HclhJda HBmahck Incongruent right correct Normal 369
18 231 LeftSmaller RTTaskExp Prime_9N Target_1N LjJeDkc KlgMhJa Incongruent left correct Normal 430
18 232 LeftSmaller RTTaskExp Prime_1N Target_9N DfbKcmk CfmlJek Incongruent right correct Normal 369
18 233 LeftSmaller RTTaskExp Prime_9A Target_9A KBcAbhF LbiIdBm Congruent right correct Normal 347
18 234 LeftSmaller RTTaskExp Prime_1A Target_4A EikGBMg JkGFjcd Congruent left correct Normal 343
18 235 LeftSmaller RTTaskExp Prime_4A Target_9A jFilJBh dEhGgfC Incongruent right correct Normal 295
18 236 LeftSmaller RTTaskExp Prime_4A Target_6A bmDgfIH DlaIAdC Incongruent right correct Normal 414
18 237 LeftSmaller RTTaskExp Prime_1A Target_9A gIEAjFc mheLDAG Incongruent right correct Normal 351
18 238 LeftSmaller RTTaskExp Prime_1A Target_1N mDFdBcI EeFhJdC Congruent left correct Normal 313
18 239 LeftSmaller RTTaskExp Prime_4A Target_9N cgKeimG BHLaKmk Incongruent right correct Normal 315
18 240 LeftSmaller RTTaskExp Prime_9A Target_4N Magmebd mfAEIGb Incongruent right error Normal 327
18 241 LeftSmaller RTTaskExp Prime_9A Target_4N BIAiMhl FCMigba Incongruent left correct Normal 441
18 242 LeftSmaller RTTaskExp Prime_4N Target_1A bfhemJL KmdJlCB Congruent left correct Normal 395
18 243 LeftSmaller RTTaskExp Prime_1A Target_9N IJcEejg fEHdcaA Incongruent right correct Normal 248
18 244 LeftSmaller RTTaskExp Prime_1N Target_6N baJCHBe eIgfLmA Incongruent left error Normal 358
18 245 LeftSmaller RTTaskExp Prime_4A Target_6N miaBAhg ieGmcdJ Incongruent right correct Normal 318
18 246 LeftSmaller RTTaskExp Prime_1N Target_6N hFmEMie hMKFBaf Incongruent right correct Normal 383
18 247 LeftSmaller RTTaskExp Prime_1A Target_6A biLAekD ikElLAj Incongruent left error Normal 312
18 248 LeftSmaller RTTaskExp Prime_1A Target_9N HFJcBGE EcmjeCi Incongruent right correct Normal 223
18 249 LeftSmaller RTTaskExp Prime_4A Target_1A KGfEeBI hjLEkBJ Congruent right error Normal 268
18 250 LeftSmaller RTTaskExp Prime_9N Target_4A LgHJcfk ikhcAjg Incongruent right error Normal 224
18 251 LeftSmaller RTTaskExp Prime_9A Target_6N CceGHhf FIkfeCG Congruent right correct Normal 310
18 252 LeftSmaller RTTaskExp Prime_9A Target_1N FgIchel lEDHaGg Incongruent left correct Normal 443
18 253 LeftSmaller RTTaskExp Prime_6N Target_9N MEmfgkd LdgiEMm Congruent right correct Normal 296
18 254 LeftSmaller RTTaskExp Prime_9N Target_4N FAgIKGJ JbAhlHd Incongruent right error Normal 307
18 255 LeftSmaller RTTaskExp Prime_1N Target_9A aHJjKCF GFiEgKc Incongruent left error Normal 250
18 256 LeftSmaller RTTaskExp Prime_6A Target_1N BIHhgmc dMigLGa Incongruent left correct Normal 415
18 257 LeftSmaller RTTaskExp Prime_9A Target_9A klcDdBK gaLAIbh Congruent right correct Normal 316
18 258 LeftSmaller RTTaskExp Prime_6A Target_9N DIHJBlF FCHIcJD Congruent right correct Normal 285
18 259 LeftSmaller RTTaskExp Prime_4N Target_4N GeIjcbK aLCMkGh Congruent left correct Normal 355
18 260 LeftSmaller RTTaskExp Prime_4A Target_4A ClkhLAJ ECbhFaf Congruent left correct Normal 351
18 261 LeftSmaller RTTaskExp Prime_6A Target_1A lMhHFCK BKJcGAi Incongruent left correct Normal 332
18 262 LeftSmaller RTTaskExp Prime_1A Target_1A jlJDBmF akBmMfe Congruent left correct Normal 324
18 263 LeftSmaller RTTaskExp Prime_1N Target_6N CfbBgmi DEfhdJm Incongruent left error Normal 306
18 264 LeftSmaller RTTaskExp Prime_6A Target_6N KDdjaJb ckGCAml Congruent right correct Normal 237
18 265 LeftSmaller RTTaskExp Prime_4A Target_9N DaKCAJb CIHKbMc Incongruent right correct Normal 250
18 266 LeftSmaller RTTaskExp Prime_9N Target_9A EMHIfiD DhaMiGJ Congruent left error Normal 305
18 267 LeftSmaller RTTaskExp Prime_1A Target_6N lBdMKJe LHdikaA Incongruent right correct Normal 281
18 268 LeftSmaller RTTaskExp Prime_4N Target_6A HLjaClK IAaiCgD Incongruent right correct Normal 364
18 269 LeftSmaller RTTaskExp Prime_1A Target_9A FgBfiCm FLgIJcA Incongruent right correct Normal 292
18 270 LeftSmaller RTTaskExp Prime_4A Target_1A GCgmjLd JiAMFgc Congruent left correct Normal 331
18 271 LeftSmaller RTTaskExp Prime_6A Target_4A leiGJcE McJhblC Incongruent left correct Normal 275
18 272 LeftSmaller RTTaskExp Prime_4N Target_9A iFegbja EAcHbDJ Incongruent right correct Normal 371
18 273 LeftSmaller RTTaskExp Prime_4N Target_9N jEMcAJi dfMFaJk Incongruent right correct Normal 312
18 274 LeftSmaller RTTaskExp Prime_6A Target_9A JBbLHEM EKBecgH Congruent right correct Normal 269
18 275 LeftSmaller RTTaskExp Prime_1N Target_1N kdMigDa hmelAEK Congruent left correct Normal 297
18 276 LeftSmaller RTTaskExp Prime_9N Target_9A eFgBHEK LKEemDk Congruent right correct Normal 310
18 277 LeftSmaller RTTaskExp Prime_4A Target_9A gkHiGCJ kjAKBMI Incongruent right correct Normal 289
18 278 LeftSmaller RTTaskExp Prime_1N Target_4N CekjHJM ilAadJG Congruent right error Normal 193
18 279 LeftSmaller RTTaskExp Prime_6A Target_4N hfbaedJ ikajMmD Incongruent right error Normal 387
18 280 LeftSmaller RTTaskExp Prime_1A Target_4A gjlaeMd LjklDge Congruent right error Normal 176
18 281 LeftSmaller RTTaskExp Prime_9N Target_1A jCEBmga acBkMli Incongruent left correct Normal 358
18 282 LeftSmaller RTTaskExp Prime_6N Target_4N CehcGli iJGlFhI Incongruent left correct Normal 316
18 283 LeftSmaller RTTaskExp Prime_1N Target_6A GFiHMhI JlCHDfB Incongruent right correct Normal 379
18 284 LeftSmaller RTTaskExp Prime_9A Target_1A hbieCjc ebjcCDl Incongruent left correct Normal 350
18 285 LeftSmaller RTTaskExp Prime_9A Target_9N CAhIJme dMEKGke Congruent right correct Normal 347
18 286 LeftSmaller RTTaskExp Prime_4A Target_4N CHMbjGe lBacJmj Congruent left correct Normal 391
18 287 LeftSmaller RTTaskExp Prime_9N Target_6N faALJMd jHJlLEf Congruent right correct Normal 356
18 288 LeftSmaller RTTaskExp Prime_1A Target_6A jiFfhBD CAcbgdD Incongruent left error Normal 284
18 289 LeftSmaller RTTaskExp Prime_9N Target_4A gheIalc mlBKhIC Incongruent right error Normal 320
18 290 LeftSmaller RTTaskExp Prime_4A Target_1N bKlMJej acglbem Congruent left correct Normal 283
18 291 LeftSmaller RTTaskExp Prime_6N Target_1N CJDHmaK mCIJEKM Incongruent right error Normal 310
18 292 LeftSmaller RTTaskExp Prime_9A Target_4N JaICiGj CfFBcbl Incongruent right error Normal 310
18 293 LeftSmaller RTTaskExp Prime_4A Target_6N EMhGLCK CfMIgLH Incongruent left error Normal 262
18 294 LeftSmaller RTTaskExp Prime_1N Target_6N lKfCkEM mgkFhef Incongruent right correct Normal 373
18 295 LeftSmaller RTTaskExp Prime_9N Target_9N mcFhMkK edKLBCj Congruent right correct Normal 591
18 296 LeftSmaller RTTaskExp Prime_6N Target_1N ajDhBFJ LMfgHik Incongruent left correct Normal 458
18 297 LeftSmaller RTTaskExp Prime_1A Target_4N fcbaMmd iCGglBM Congruent right error Normal 408
18 298 LeftSmaller RTTaskExp Prime_6N Target_9A GEMdHBe CFDcMKL Congruent right correct Normal 339
18 299 LeftSmaller RTTaskExp Prime_4N Target_6N ClBcAaK jaiJCLH Incongruent left error Normal 397
18 300 LeftSmaller RTTaskExp Prime_6A Target_4N GmdckEL ceJmGIM Incongruent right error Normal 345
18 301 LeftSmaller RTTaskExp Prime_1A Target_4N HhaAEig bjELiJC Congruent left correct Normal 384
18 302 LeftSmaller RTTaskExp Prime_6N Target_6N CHfKeBE dJFkHCL Congruent right correct Normal 394
18 303 LeftSmaller RTTaskExp Prime_1N Target_1A JjmAdDf eAIfaFM Congruent left correct Normal 373
18 304 LeftSmaller RTTaskExp Prime_6A Target_4N BJCMhil IkajJHd Incongruent right error Normal 296
18 305 LeftSmaller RTTaskExp Prime_6A Target_6A MgaFJec dhDJFij Congruent right correct Normal 347
18 306 LeftSmaller RTTaskExp Prime_1A Target_6A KAjJmfk gHGbfdc Incongruent right correct Normal 382
18 307 LeftSmaller RTTaskExp Prime_1N Target_4N kHeabcC BlmCghf Congruent left correct Normal 352
18 308 LeftSmaller RTTaskExp Prime_9N Target_1N EfkAHlg LHgaemd Incongruent right error Normal 318
18 309 LeftSmaller RTTaskExp Prime_9A Target_6A MdeHIhE BbaMefI Congruent right correct Normal 277
18 310 LeftSmaller RTTaskExp Prime_6A Target_4N eKjlFLh ilkGMhd Incongruent left correct Normal 350
18 311 LeftSmaller RTTaskExp Prime_9N Target_4A fmHjkch HdefACb Incongruent right error Normal 289
18 312 LeftSmaller RTTaskExp Prime_4A Target_6A ckFCabM CAGFeiE Incongruent left error Normal 355
18 313 LeftSmaller RTTaskExp Prime_4N Target_1N DakBgFl hGABbJL Congruent left correct Normal 368
18 314 LeftSmaller RTTaskExp Prime_1N Target_9N gcIDLEC iKFIkjC Incongruent right correct Normal 409
18 315 LeftSmaller RTTaskExp Prime_1N Target_9A jDhKIJF bAEMfkB Incongruent right correct Normal 468
18 316 LeftSmaller RTTaskExp Prime_9A Target_4N lKGAdcC cajCKig Incongruent left correct Normal 460
18 317 LeftSmaller RTTaskExp Prime_6N Target_6A jHFbMCJ MmedhfG Congruent right correct Normal 350
18 318 LeftSmaller RTTaskExp Prime_4A Target_6A eHcmkli lFGMcaB Incongruent right correct Normal 424
18 319 LeftSmaller RTTaskExp Prime_4N Target_1A HcfDjMB CMhfkdH Congruent left correct Normal 308
18 320 LeftSmaller RTTaskExp Prime_1A Target_1N miKljJc kMjFDCc Congruent left correct Normal 594
18 321 LeftSmaller RTTaskExp Prime_9N Target_6A BDHLmhf IilgcGm Congruent right correct Normal 438
18 322 LeftSmaller RTTaskExp Prime_1A Target_4A efmIAka GAgFhCL Congruent left correct Normal 354
18 323 LeftSmaller RTTaskExp Prime_6N Target_1A mdlbAgj jMcDFem Incongruent left correct Normal 391
18 324 LeftSmaller RTTaskExp Prime_9N Target_1N hbLcBJC LeHmIDB Incongruent left correct Normal 383
18 325 LeftSmaller RTTaskExp Prime_4A Target_6N ekLjgEi eJLHBjG Incongruent right correct Normal 353
18 326 LeftSmaller RTTaskExp Prime_4N Target_4A FieICAh aDmgCjK Congruent left correct Normal 468
18 327 LeftSmaller RTTaskExp Prime_9A Target_4A miHkFAh IjglcmK Incongruent left correct Normal 319
18 328 LeftSmaller RTTaskExp Prime_1N Target_4A eKCBhGI GdeglJi Congruent left correct Normal 345
18 329 LeftSmaller RTTaskExp Prime_9N Target_4A dKajDLH GKHCmfl Incongruent left correct Normal 392
18 330 LeftSmaller RTTaskExp Prime_6N Target_4A KIghkMF CdHkKEg Incongruent left correct Normal 327
18 331 LeftSmaller RTTaskExp Prime_4N Target_6N mlCEbig JBkhFdM Incongruent right correct Normal 338
18 332 LeftSmaller RTTaskExp Prime_9N Target_4N BkJHlEc jDIkBGL Incongruent right error Normal 382
18 333 LeftSmaller RTTaskExp Prime_9N Target_4N LMgblkh EMCfdch Incongruent left correct Normal 520
19 21 LeftSmaller RTTaskExp Prime_4A Target_9N iMdHKmJ LBjklhI Incongruent right correct Normal 473
19 22 LeftSmaller RTTaskExp Prime_9A Target_6A GBAMhij GlcHLId Congruent left error Normal 482
19 23 LeftSmaller RTTaskExp Prime_9N Target_6N iKdCFIe BIGfHeg Congruent right correct Normal 407
19 24 LeftSmaller RTTaskExp Prime_6A Target_4N lKBcMfE DIMACKe Incongruent left correct Normal 399
19 25 LeftSmaller RTTaskExp Prime_6N Target_4A fdHaGLh hCMDHja Incongruent right error Normal 417
19 26 LeftSmaller RTTaskExp Prime_9N Target_1N blJGDhH JLcGbBD Incongruent left correct Normal 436
19 27 LeftSmaller RTTaskExp Prime_6A Target_6A fjBKaei HFelKmi Congruent right correct Normal 478
19 28 LeftSmaller RTTaskExp Prime_9A Target_6N HJKdEAM ceHdJFa Congruent right correct Normal 560
19 29 LeftSmaller RTTaskExp Prime_6N Target_6A cadiIeH cMGdCiI Congruent right correct Normal 391
19 30 LeftSmaller RTTaskExp Prime_4A Target_6N IHFEjGA bdaBJKh Incongruent right correct Normal 402
19 31 LeftSmaller RTTaskExp Prime_6A Target_9A cjKaAGk lbfHGKm Congruent right correct Normal 304
19 32 LeftSmaller RTTaskExp Prime_9N Target_4N eFKcAaM fIKEGAg Incongruent right error Normal 126
19 33 LeftSmaller RTTaskExp Prime_4A Target_1N BLacEim dFCmiJB Congruent right error Normal 326
19 34 LeftSmaller RTTaskExp Prime_4A Target_1A giDjkeK ImBflGL Congruent left correct Normal 423
19 35 LeftSmaller RTTaskExp Prime_9A Target_9N eijgGBb IHibklj Congruent right correct Normal 458
19 36 LeftSmaller RTTaskExp Prime_9A Target_1A IaFEKek aCKGjfd Incongruent left correct Normal 453
19 37 LeftSmaller RTTaskExp Prime_1A Target_6N BkhbaiL IaGgihJ Incongruent right correct Normal 464
19 38 LeftSmaller RTTaskExp Prime_9N Target_1A BdLcfie KgeGCJI Incongruent left correct Normal 402
19 39 LeftSmaller RTTaskExp Prime_4N Target_9A McCiHJA IgHkKFA Incongruent right correct Normal 484
19 40 LeftSmaller RTTaskExp Prime_9N Target_9A imLGEkK fkHKlEC Congruent right correct Normal 596
19 41 LeftSmaller RTTaskExp Prime_6A Target_4A kiEDaGl dJkCaAF Incongruent left correct Normal 594
19 42 LeftSmaller RTTaskExp Prime_4N Target_1N EjcHFlA cDagAhL Congruent left correct Normal 479
19 43 LeftSmaller RTTaskExp Prime_1A Target_9N mAgiGIE CEeGKal Incongruent right correct Normal 525
19 44 LeftSmaller RTTaskExp Prime_6A Target_9N KBGJDMd fGgjdHl Congruent right correct Normal 476
19 45 LeftSmaller RTTaskExp Prime_1N Target_6A lkImhJH fJBEMGh Incongruent right correct Normal 448
19 46 LeftSmaller RTTaskExp Prime_4A Target_4A KEGjFJB bcIGlKC Congruent left correct Normal 342
19 47 LeftSmaller RTTaskExp Prime_1A Target_1N GLEiCcA eEHkhcM Congruent left correct Normal 507
19 48 LeftSmaller RTTaskExp Prime_9N Target_4A FakdDiH lGFBAmf Incongruent left correct Normal 520
19 49 LeftSmaller RTTaskExp Prime_4A Target_4N mBfIGlJ jBkaHdf Congruent left correct Normal 601
19 50 LeftSmaller RTTaskExp Prime_6N Target_1N gDkAGhi iILcfHK Incongruent left correct Normal 489
19 51 LeftSmaller RTTaskExp Prime_4N Target_9N LfcBAKi KbMeBcF Incongruent left error Normal 325
19 52 LeftSmaller RTTaskExp Prime_1A Target_1A LHKhIEC AmBedfh Congruent left correct Normal 464
19 53 LeftSmaller RTTaskExp Prime_4N Target_4A DhmMlCL fBdLKcD Congruent left correct Normal 585
19 54 LeftSmaller RTTaskExp Prime_4A Target_9A EiAIeDg acdmfEH Incongruent right correct Normal 499
19 55 LeftSmaller RTTaskExp Prime_1N Target_9A mlGjIKe IhGgMcH Incongruent right correct Normal 493
19 56 LeftSmaller RTTaskExp Prime_9A Target_9A kcjlhAM jEJHdIL Congruent right correct Normal 383
19 57 LeftSmaller RTTaskExp Prime_1A Target_4A DLKlBFm LeADjCb Congruent left correct Normal 388
19 58 LeftSmaller RTTaskExp Prime_6N Target_9A fCbIdkB aFfieHb Congruent right correct Normal 430
19 59 LeftSmaller RTTaskExp Prime_1N Target_9N mfIaGKB KElLJCj Incongruent right correct Normal 510
19 60 LeftSmaller RTTaskExp Prime_6A Target_6N DcAhglG HJldFKB Congruent right correct Normal 497
19 61 LeftSmaller RTTaskExp Prime_9A Target_1N ABJCjlg IgKaldB Incongruent right error Normal 355
19 62 LeftSmaller RTTaskExp Prime_6A Target_1A GBlHMcF JfghMmE Incongruent left correct Normal 466
19 63 LeftSmaller RTTaskExp Prime_9N Target_6A hLGAFfl dAIhJgk Congruent right correct Normal 662
19 64 LeftSmaller RTTaskExp Prime_6N Target_4N bMBhmEf EhMBDFI Incongruent left correct Normal 566
19 65 LeftSmaller RTTaskExp Prime_6N Target_6N cadfFhG cFfMgLC Congruent right correct Normal 393
19 66 LeftSmaller RTTaskExp Prime_1N Target_1N mkihMJE HlbIdjB Congruent left correct Normal 465
19 67 LeftSmaller RTTaskExp Prime_1A Target_4N IcdkiAm BfFdCKm Congruent left correct Normal 827
19 68 LeftSmaller RTTaskExp Prime_1A Target_6A laiHIMK iImLJBh Incongruent right correct Normal 470
19 69 LeftSmaller RTTaskExp Prime_9A Target_6A cmiCjdk acDfjAJ Congruent right correct Normal 340
19 70 LeftSmaller RTTaskExp Prime_1A Target_9A kHLFhcC LkjhfMc Incongruent right correct Normal 311
19 71 LeftSmaller RTTaskExp Prime_6A Target_1N MahDmkf fBikDEG Incongruent left correct Normal 423
19 72 LeftSmaller RTTaskExp Prime_1N Target_4N GIMhkjE DCimIkG Congruent right error Normal 326
19 73 LeftSmaller RTTaskExp Prime_9N Target_4N iCEjmgL FaAkHgj Incongruent left correct Normal 653
19 74 LeftSmaller RTTaskExp Prime_4N Target_4N laEkgLM lGjAIKa Congruent left correct Normal 470
19 75 LeftSmaller RTTaskExp Prime_1N Target_6N CAjhFLa BDAbCef Incongruent right correct Normal 453
19 76 LeftSmaller RTTaskExp Prime_9A Target_4N JdMKGAE gkHhfbd Incongruent left correct Normal 658
19 77 LeftSmaller RTTaskExp Prime_9A Target_4A KebBAaL HDKBahM Incongruent left correct Normal 466
19 78 LeftSmaller RTTaskExp Prime_1N Target_1A KLcImFJ jKhlGdk Congruent left correct Normal 521
19 79 LeftSmaller RTTaskExp Prime_4N Target_6N KhegjHB dIjlDfJ Incongruent left error Normal 460
19 80 LeftSmaller RTTaskExp Prime_6N Target_4A MjLJIbd GagKmDE Incongruent left correct Normal 467
19 81 LeftSmaller RTTaskExp Prime_1N Target_4N glLfakh MdKHAaI Congruent left correct Normal 554
19 82 LeftSmaller RTTaskExp Prime_4N Target_6A IHEJAib likmEdH Incongruent left error Normal 297
19 83 LeftSmaller RTTaskExp Prime_4A Target_6A iDICMbm GlAcDhd Incongruent right correct Normal 480
19 84 LeftSmaller RTTaskExp Prime_4N Target_9N kJdfLKF MahdFck Incongruent right correct Normal 501
19 85 LeftSmaller RTTaskExp Prime_6N Target_9N mdbcIHg heJbMAB Congruent right correct Normal 323
19 86 LeftSmaller RTTaskExp Prime_4N Target_1A LdCcMeg caJbfeF Congruent left correct Normal 398
19 87 LeftSmaller RTTaskExp Prime_4A Target_1N IaKkeCE fCdFKJe Congruent left correct Normal 330
19 88 LeftSmaller RTTaskExp Prime_6N Target_1A eGlijdB mEdgGFe Incongruent left correct Normal 356
19 89 LeftSmaller RTTaskExp Prime_9A Target_1N mGiLCAg AhegiIk Incongruent left correct Normal 408
19 90 LeftSmaller RTTaskExp Prime_4N Target_6N ILMaAbh GEFhJjc Incongruent left error Normal 396
19 91 LeftSmaller RTTaskExp Prime_4N Target_6A AMIBdkj HdkeDBM Incongruent right correct Normal 368
19 92 LeftSmaller RTTaskExp Prime_4N Target_6N GKhjcdF bGAMgec Incongruent right correct Normal 326
19 93 LeftSmaller RTTaskExp Prime_1N Target_4A ChkcLaI mlBgfHJ Congruent right error Normal 477
19 94 LeftSmaller RTTaskExp Prime_1N Target_4A DAEIMCj fCMbgEA Congruent left correct Normal 441
19 95 LeftSmaller RTTaskExp Prime_9N Target_9N JECFjHi mhKHCkc Congruent right correct Normal 450
19 96 LeftSmaller RTTaskExp Prime_6A Target_9A dekKlbg JlghCfB Congruent right correct Normal 467
19 97 LeftSmaller RTTaskExp Prime_4N Target_6A abDIdMh HIFaBej Incongruent left error Normal 357
19 98 LeftSmaller RTTaskExp Prime_4N Target_6A FAfDEcd JeAlamI Incongruent right correct Normal 345
19 99 LeftSmaller RTTaskExp Prime_6A Target_4N jIkiflL HaimIgA Incongruent left correct Normal 592
19 100 LeftSmaller RTTaskExp Prime_6A Target_9N gcmhKBJ fEJceKG Congruent right correct Normal 363
19 101 LeftSmaller RTTaskExp Prime_1A Target_1A lcMkaDe IcKdiBH Congruent left correct Normal 382
19 102 LeftSmaller RTTaskExp Prime_6N Target_6A dbiMJeE eJMDCBK Congruent left error Normal 470
19 103 LeftSmaller RTTaskExp Prime_9N Target_9A mklHdIJ EAbFmHB Congruent right correct Normal 482
19 104 LeftSmaller RTTaskExp Prime_6N Target_1A lGLeaHi LFmKAdM Incongruent left correct Normal 412
19 105 LeftSmaller RTTaskExp Prime_1N Target_9N ALmMgIe jbdHgJi Incongruent right correct Normal 442
19 106 LeftSmaller RTTaskExp Prime_1N Target_1N FkfjbMa EAeHDlI Congruent left correct Normal 404
19 107 LeftSmaller RTTaskExp Prime_4N Target_6N BjhbMag fEcGJaI Incongruent right correct Normal 423
19 108 LeftSmaller RTTaskExp Prime_1N Target_4N edjkiEa dabjGAC Congruent right error Normal 478
19 109 LeftSmaller RTTaskExp Prime_1A Target_9N GEICBej hGDbEMB Incongruent right correct Normal 484
19 110 LeftSmaller RTTaskExp Prime_9N Target_1A clajHgI bAcIBfl Incongruent left correct Normal 417
19 111 LeftSmaller RTTaskExp Prime_6N Target_6N lCaDFdK gahGALd Congruent right correct Normal 384
19 112 LeftSmaller RTTaskExp Prime_6A Target_4A iJlDaEe KmFMIcf Incongruent left correct Normal 615
19 113 LeftSmaller RTTaskExp Prime_1N Target_6A AlJehfm AfElJBa Incongruent left error Normal 388
19 114 LeftSmaller RTTaskExp Prime_4A Target_9A mMgKHFh iKFMdDm Incongruent right correct Normal 380
19 115 LeftSmaller RTTaskExp Prime_4A Target_4A FbLcKdG LcEilIJ Congruent left correct Normal 446
19 116 LeftSmaller RTTaskExp Prime_6A Target_1A DGKHIgM bClhLiG Incongruent left correct Normal 515
19 117 LeftSmaller RTTaskExp Prime_9N Target_4N mdiCjBb JAaHjkK Incongruent right error Normal 414
19 118 LeftSmaller RTTaskExp Prime_1N Target_9A fLBIlha AHadiBh Incongruent right correct Normal 526
19 119 LeftSmaller RTTaskExp Prime_4N Target_1A dCHFBJj heaJKMc Congruent left correct Normal 504
19 120 LeftSmaller RTTaskExp Prime_4N Target_4N JmHahCl AehHbac Congruent right error Normal 905
19 121 LeftSmaller RTTaskExp Prime_9N Target_6A gGmcIKA BkjJaic Congruent right correct Normal 429
19 122 LeftSmaller RTTaskExp Prime_1A Target_1N gMFhLcE JicCgdh Congruent left correct Normal 540
19 123 LeftSmaller RTTaskExp Prime_9N Target_6N fIBHhlK akMdmeg Congruent right correct Normal 746
19 124 LeftSmaller RTTaskExp Prime_6N Target_4N MKiLaAH jehkamf Incongruent left correct Late 1002
19 125 LeftSmaller RTTaskExp Prime_9A Target_1N eFLDaAg JIebhaD Incongruent left correct Normal 565
19 126 LeftSmaller RTTaskExp Prime_4A Target_1N eJCAdcF JDbfekg Congruent left correct Normal 467
19 127 LeftSmaller RTTaskExp Prime_9A Target_4N bKGHakI iljKFCf Incongruent right error Normal 522
19 128 LeftSmaller RTTaskExp Prime_1N Target_4A aJgFAeh hAFILei Congruent left correct Normal 983
19 129 LeftSmaller RTTaskExp Prime_9N Target_9N lKafEGF kedCcHJ Congruent right correct Normal 626
19 130 LeftSmaller RTTaskExp Prime_1A Target_6A BgDlCmb CJelhHj Incongruent right correct Normal 763
19 131 LeftSmaller RTTaskExp Prime_9A Target_9N GELHAIc beIkBKd Congruent right correct Normal 508
19 132 LeftSmaller RTTaskExp Prime_6N Target_4N GbKIDAd ACedhib Incongruent left correct Normal 588
19 133 LeftSmaller RTTaskExp Prime_1A Target_9A FiEcMlg aLcCKlH Incongruent right correct Normal 535
19 134 LeftSmaller RTTaskExp Prime_1N Target_1A ekMlaJD aeEGDKc Congruent left correct Normal 424
19 135 LeftSmaller RTTaskExp Prime_1N Target_6A jfKHGJi AiFBClD Incongruent right correct Normal 506
