sub trial_no group_type block_type prime target mask1 mask2 congruency key_press key_error time_error RT
16 17 LeftSmaller PercIExp Prime_1A Target_6N EaHBjDm iHaehml Incongruent right error Normal 341
16 18 LeftSmaller PercIExp Prime_4N Target_6N AaEIdbB kjAGlMI Incongruent right error Normal 650
16 19 LeftSmaller PercIExp Prime_9N Target_6A DehaLJF mibdChj Congruent right correct Normal 567
16 20 LeftSmaller PercIExp Prime_9A Target_1N BCiblKG lkbHjEe Incongruent left error Normal 268
16 21 LeftSmaller PercIExp Prime_6A Target_1A aHmKkMe cLHbkCj Incongruent right correct Normal 270
16 22 LeftSmaller PercIExp Prime_6N Target_9N jCIdMBL DgdhKLm Congruent left error Normal 193
16 23 LeftSmaller PercIExp Prime_9A Target_9N mMHgaAK fABjhag Congruent right correct Normal 158
16 24 LeftSmaller PercIExp Prime_9N Target_1N cgFLahK cIGEaCF Incongruent right correct Normal 164
16 25 LeftSmaller PercIExp Prime_1A Target_1A lMdBLbE FajHACb Congruent left correct Normal 178
16 26 LeftSmaller PercIExp Prime_6A Target_1N hGcklij bmfIljH Incongruent right correct Early 60
16 27 LeftSmaller PercIExp Prime_9A Target_4A LIdBmkl kDjdJGE Incongruent right correct Normal 324
16 28 LeftSmaller PercIExp Prime_9A Target_4N DlaMjed CHeMdKk Incongruent left error Normal 650
16 29 LeftSmaller PercIExp Prime_6N Target_1N cmdCMHI cLFdJMa Incongruent right correct Normal 843
16 30 LeftSmaller PercIExp Prime_1N Target_6N kbEMdKH hEHfdkM Incongruent right error Normal 549
16 31 LeftSmaller PercIExp Prime_1A Target_1N mfklEea IiGClKF Congruent left correct Normal 488
16 32 LeftSmaller PercIExp Prime_9A Target_6A KgjhbAC EmljKbk Congruent right correct Normal 528
16 33 LeftSmaller PercIExp Prime_4A Target_1A IcJmglh hLCKgml Congruent right error Normal 538
16 34 LeftSmaller PercIExp Prime_6A Target_9N kAhDEHc BKmdHML Congruent right correct Normal 554
16 35 LeftSmaller PercIExp Prime_4N Target_9N EcdlBbg haEgFlk Incongruent right error Normal 448
16 36 LeftSmaller PercIExp Prime_4N Target_4A MdGkAFK LMmFcAb Congruent right error Early 91
16 37 LeftSmaller PercIExp Prime_4A Target_6N diGJKjA FLJIdmE Incongruent left correct Normal 160
16 38 LeftSmaller PercIExp Prime_1A Target_4A bEHCGJL Hkcehdf Congruent left correct Normal 113
16 39 LeftSmaller PercIExp Prime_6A Target_9A HBjleMG GFgMeIB Congruent right correct Normal 281
16 40 LeftSmaller PercIExp Prime_4A Target_4N JdBgGca lIaegiE Congruent left correct Normal 174
16 41 LeftSmaller PercIExp Prime_9N Target_6N GcDbJHF eBhDHmj Congruent left error Normal 127
16 42 LeftSmaller PercIExp Prime_1N Target_4N bJEgmBe hJAkGim Congruent right error Normal 135
16 43 LeftSmaller PercIExp Prime_6N Target_1A EIgAjlK EdJMiLB Incongruent left error Normal 143
16 44 LeftSmaller PercIExp Prime_9N Target_4A DAbcLkB lDmLCcj Incongruent right correct Early 95
16 45 LeftSmaller PercIExp Prime_1N Target_4A JHlfLIE mJAdBhk Congruent right error Normal 208
16 46 LeftSmaller PercIExp Prime_1N Target_1A fgBKEcI IHCKamB Congruent left correct Early 89
16 47 LeftSmaller PercIExp Prime_6N Target_9A iEGCaJK HGEBLeD Congruent right correct Normal 139
16 48 LeftSmaller PercIExp Prime_1A Target_6A ldeGJCL dhmjfEI Incongruent right error Normal 147
16 49 LeftSmaller PercIExp Prime_6A Target_6A kgmfLHA bFJclGk Congruent right correct Early 74
16 50 LeftSmaller PercIExp Prime_1N Target_9A EKfmeiC kigCFbf Incongruent right error Normal 586
16 51 LeftSmaller PercIExp Prime_1A Target_4N DacLHjb KgbCmDd Congruent left correct Normal 349
16 52 LeftSmaller PercIExp Prime_1N Target_9N JIgdLhD KmGAIMF Incongruent right error Normal 473
16 53 LeftSmaller PercIExp Prime_4N Target_4N fLJlMGI DcFHCfe Congruent right error Normal 303
16 54 LeftSmaller PercIExp Prime_9A Target_6N AhaeDGH bDBjalh Congruent left error Normal 387
16 55 LeftSmaller PercIExp Prime_1N Target_1N EDAaCFf kBFDhLd Congruent left correct Normal 223
16 56 LeftSmaller PercIExp Prime_4N Target_6A DlibIBg hDHEFKb Incongruent right error Early 77
16 57 LeftSmaller PercIExp Prime_1A Target_9A cAmkDaM lceAIfa Incongruent left correct Normal 277
16 58 LeftSmaller PercIExp Prime_9N Target_1A jAChKDd ICLKGib Incongruent right correct Normal 353
16 59 LeftSmaller PercIExp Prime_9A Target_9A jaiHGFB LKaiDkA Congruent right correct Normal 183
16 60 LeftSmaller PercIExp Prime_6N Target_4A jeHLElI eMbmhDF Incongruent right correct Normal 136
16 61 LeftSmaller PercIExp Prime_6A Target_4A jgIBJLH IALdjki Incongruent right correct Normal 166
16 62 LeftSmaller PercIExp Prime_4N Target_1N fFcEkAJ ceJhldC Congruent left correct Normal 557
16 63 LeftSmaller PercIExp Prime_6A Target_4N mMbidhK iegBhKJ Incongruent left error Normal 260
16 64 LeftSmaller PercIExp Prime_6N Target_6A gMJIhmK MAKBcFb Congruent right correct Normal 166
16 65 LeftSmaller PercIExp Prime_6N Target_6N GBLMbfK kFbKcGf Congruent right correct Normal 366
16 66 LeftSmaller PercIExp Prime_9N Target_9A DjbLKCE jIHBekF Congruent right correct Normal 263
16 67 LeftSmaller PercIExp Prime_4A Target_6A HiACdhk hCmAFJf Incongruent left correct Normal 557
16 68 LeftSmaller PercIExp Prime_6N Target_4N LBcKMAb AIJFjdb Incongruent right correct Normal 269
16 69 LeftSmaller PercIExp Prime_4A Target_9A gChilFB gADFJCh Incongruent right error Normal 567
16 70 LeftSmaller PercIExp Prime_1A Target_9N EahjAJK cGjMDHd Incongruent left correct Normal 658
16 71 LeftSmaller PercIExp Prime_6A Target_6N JAHCFKI LgckMbI Congruent left error Normal 672
16 72 LeftSmaller PercIExp Prime_4A Target_1N IkLCjfF iLajFmI Congruent left correct Normal 941
16 73 LeftSmaller PercIExp Prime_4A Target_9N mfLCjHF HAkcejG Incongruent left correct Normal 694
16 74 LeftSmaller PercIExp Prime_4N Target_9A LkJFGbc MfEeAlb Incongruent right error Normal 508
16 75 LeftSmaller PercIExp Prime_4N Target_1A EmiGBAl ADbHdmE Congruent left correct Normal 641
16 76 LeftSmaller PercIExp Prime_9A Target_1A ChIHFbm BAhHIle Incongruent right correct Normal 658
16 77 LeftSmaller PercIExp Prime_9N Target_4N DgBLIlH agFhcfl Incongruent right correct Normal 425
16 78 LeftSmaller PercIExp Prime_1N Target_6A hgedkfb aJbCGed Incongruent left correct Normal 418
16 79 LeftSmaller PercIExp Prime_9N Target_9N MLhFfcK jHgiAaJ Congruent right correct Normal 282
16 80 LeftSmaller PercIExp Prime_4A Target_4A HEhLgFi CFljDhg Congruent right error Normal 213
16 81 LeftSmaller PercIExp Prime_4A Target_4A mGFlCgb gHMBbIL Congruent left correct Normal 660
16 82 LeftSmaller PercIExp Prime_6N Target_9A egcMIEa GmelAKf Congruent right correct Normal 493
16 83 LeftSmaller PercIExp Prime_1N Target_9A ibJDjAL kAlDgeH Incongruent right error Normal 548
16 84 LeftSmaller PercIExp Prime_9A Target_6A baCdAlE AfcLDCm Congruent right correct Normal 610
16 85 LeftSmaller PercIExp Prime_4N Target_9N GgEkLmA jaIefgE Incongruent left correct Normal 1106
16 86 LeftSmaller PercIExp Prime_6A Target_1A mDKMaJF jEealIg Incongruent left error Normal 695
16 87 LeftSmaller PercIExp Prime_6N Target_9N blKIBdL dmjhHaC Congruent right correct Normal 440
16 88 LeftSmaller PercIExp Prime_9N Target_1A mAIdBbC lGHELJc Incongruent left error Normal 535
16 89 LeftSmaller PercIExp Prime_1A Target_4N iCFJLIe BCMLamI Congruent left correct Normal 656
16 90 LeftSmaller PercIExp Prime_4A Target_1A HIkBmci JIHKfjM Congruent right error Normal 604
16 91 LeftSmaller PercIExp Prime_6N Target_4A kgLJEFm jIHDlJg Incongruent left error Normal 546
16 92 LeftSmaller PercIExp Prime_6N Target_6A JkMimDI DbFJIkL Congruent right correct Normal 722
16 93 LeftSmaller PercIExp Prime_1A Target_1N liaAIfk LEJGgla Congruent right error Normal 849
16 94 LeftSmaller PercIExp Prime_1A Target_6A AfdIGha KhejbIi Incongruent right error Normal 601
16 95 LeftSmaller PercIExp Prime_1N Target_4N DGbmhBd difFDlc Congruent left correct Normal 214
16 96 LeftSmaller PercIExp Prime_9A Target_1N hHmbIej imIfGEM Incongruent right correct Normal 688
16 97 LeftSmaller PercIExp Prime_6N Target_6N eFDEjka eckKbBA Congruent right correct Normal 1465
16 98 LeftSmaller PercIExp Prime_9A Target_9N emBfcAa eDmgIMC Congruent right correct Normal 696
16 99 LeftSmaller PercIExp Prime_6N Target_4N aFAmldD KLHdleJ Incongruent left error Normal 457
16 100 LeftSmaller PercIExp Prime_4A Target_6N gbdJcaG KkJEIjl Incongruent right error Normal 866
16 101 LeftSmaller PercIExp Prime_1N Target_1A IgLHCJf kdiFgEh Congruent left correct Normal 800
16 102 LeftSmaller PercIExp Prime_4N Target_9A aGicHIk FCfKAIl Incongruent right error Normal 656
16 103 LeftSmaller PercIExp Prime_1A Target_9N jeDilfc GEjhMFB Incongruent left correct Normal 401
16 104 LeftSmaller PercIExp Prime_1A Target_1A hagAlGJ dKFmkBg Congruent right error Normal 204
16 105 LeftSmaller PercIExp Prime_9A Target_6N ifdCJjL gaHEfBh Congruent right correct Early 99
16 106 LeftSmaller PercIExp Prime_6A Target_1N IaHkCjM MLfBbhe Incongruent left error Normal 257
16 107 LeftSmaller PercIExp Prime_4N Target_4N gAMEDKI iJkAjcm Congruent left correct Normal 424
16 108 LeftSmaller PercIExp Prime_6A Target_6A GBAJlah FKbJeCi Congruent right correct Normal 271
16 109 LeftSmaller PercIExp Prime_1N Target_9N lFAMedC AlFGjIg Incongruent right error Normal 453
16 110 LeftSmaller PercIExp Prime_9A Target_4A FLdfhKk fgcEmCk Incongruent left error Normal 201
16 111 LeftSmaller PercIExp Prime_9N Target_9A fhKClce bBmAGEF Congruent right correct Normal 394
16 112 LeftSmaller PercIExp Prime_4A Target_9A DdMjelf GcCBdHJ Incongruent left correct Normal 993
16 113 LeftSmaller PercIExp Prime_1N Target_6N dFIgCBG iLFkgcD Incongruent right error Normal 155
16 114 LeftSmaller PercIExp Prime_6N Target_1N iIEFAfb FkHKEJI Incongruent right correct Normal 280
16 115 LeftSmaller PercIExp Prime_9N Target_4N gAkLJdh jMeALBD Incongruent left error Normal 735
16 116 LeftSmaller PercIExp Prime_4N Target_6A GAcIeFC AjikGKM Incongruent right error Normal 749
16 117 LeftSmaller PercIExp Prime_6A Target_9N DghCIbk AfbdceG Congruent right correct Normal 620
16 118 LeftSmaller PercIExp Prime_4A Target_6A DkdfaFj baeJGAl Incongruent left correct Normal 457
16 119 LeftSmaller PercIExp Prime_6A Target_4A hCMDgBe AKILMdc Incongruent left error Normal 391
16 120 LeftSmaller PercIExp Prime_1A Target_9A HCkleAK bFacdHG Incongruent right error Normal 438
16 121 LeftSmaller PercIExp Prime_6N Target_1A jIFdamh JHGFhdL Incongruent left error Normal 600
16 122 LeftSmaller PercIExp Prime_9N Target_1N AeDaKMJ aLIgkcf Incongruent right correct Normal 693
16 123 LeftSmaller PercIExp Prime_6A Target_4N cFlGKbd eGaKjIb Incongruent left error Normal 296
16 124 LeftSmaller PercIExp Prime_1N Target_4A KjbEcfg bgjILKa Congruent left correct Normal 346
16 125 LeftSmaller PercIExp Prime_9N Target_6A ebKGJkC lCJAkmF Congruent left error Normal 260
16 126 LeftSmaller PercIExp Prime_9A Target_1A MJiLbCd HcIlKLh Incongruent right correct Normal 231
16 127 LeftSmaller PercIExp Prime_1N Target_6A ehgdFcj mCbGlfD Incongruent left correct Normal 627
16 128 LeftSmaller PercIExp Prime_9N Target_6N EdigaFH FHIlfbA Congruent right correct Normal 326
16 129 LeftSmaller PercIExp Prime_1A Target_4A LFmlEhM BiElGeK Congruent left correct Normal 585
16 130 LeftSmaller PercIExp Prime_4N Target_4A AmbBiKg IfDjkgF Congruent left correct Normal 273
16 131 LeftSmaller PercIExp Prime_4N Target_1N FlKEjaG HLkKmgI Congruent right error Normal 167
16 132 LeftSmaller PercIExp Prime_9N Target_4A elICfJi HIKmDjB Incongruent right correct Normal 678
16 133 LeftSmaller PercIExp Prime_1N Target_1N IldKcHC ckFCldK Congruent right error Normal 655
16 134 LeftSmaller PercIExp Prime_9N Target_9N GFChBjE fEHlKJA Congruent left error Normal 377
16 135 LeftSmaller PercIExp Prime_4A Target_1N CKImbAh KkiFEHL Congruent left correct Normal 918
16 136 LeftSmaller PercIExp Prime_6A Target_9A jCedMHi cLDBejH Congruent right correct Normal 497
16 137 LeftSmaller PercIExp Prime_4A Target_4N LEdgFIf EIBKcHd Congruent left correct Normal 905
16 138 LeftSmaller PercIExp Prime_1A Target_6N KMdkcGe haMjdBE Incongruent right error Normal 782
16 139 LeftSmaller PercIExp Prime_4N Target_1A HKjDeAI FmJCDkE Congruent left correct Normal 503
16 140 LeftSmaller PercIExp Prime_9A Target_9A CifELKM CjBEdaD Congruent right correct Normal 252
16 141 LeftSmaller PercIExp Prime_6A Target_6N BGdeJDA kCgHbFM Congruent right correct Normal 853
16 142 LeftSmaller PercIExp Prime_9A Target_4N JkgmALl mjgDIaM Incongruent right correct Normal 393
16 143 LeftSmaller PercIExp Prime_4A Target_9N DMJCBcm cJImeFB Incongruent right error Normal 155
16 144 LeftSmaller PercIExp Prime_4N Target_6N JGdLkhc gCLFDJG Incongruent left correct Normal 146
16 145 LeftSmaller PercIExp Prime_6N Target_4A kILGMAe iLbgIKc Incongruent left error Normal 863
16 146 LeftSmaller PercIExp Prime_9N Target_6A jGJFdAI mEakFBi Congruent right correct Normal 1356
16 147 LeftSmaller PercIExp Prime_6A Target_6A aHmAfjF DEIgbde Congruent left error Normal 813
16 148 LeftSmaller PercIExp Prime_4A Target_4A DkMlJBm GMKfDla Congruent right error Normal 145
16 149 LeftSmaller PercIExp Prime_6N Target_1N afJjKkm AmGiJfK Incongruent right correct Normal 156
16 150 LeftSmaller PercIExp Prime_1A Target_9A KglDfcC jadbgJl Incongruent left correct Normal 180
16 151 LeftSmaller PercIExp Prime_6A Target_1A kCdDFlL ieGBELH Incongruent left error Normal 192
16 152 LeftSmaller PercIExp Prime_4A Target_4N MDkGEeg DbLEgiM Congruent left correct Normal 338
16 153 LeftSmaller PercIExp Prime_4N Target_4A MJdibDE jMKFGJi Congruent right error Normal 376
16 154 LeftSmaller PercIExp Prime_6A Target_6N GldAgbf gFkeBjI Congruent right correct Normal 153
16 155 LeftSmaller PercIExp Prime_6N Target_1A DFgBmlA KFaAdgG Incongruent left error Normal 1099
16 156 LeftSmaller PercIExp Prime_1A Target_1N GDiHmhj clkLMDf Congruent right error Normal 1058
16 157 LeftSmaller PercIExp Prime_1N Target_9A JcaKGIj kDlfaIH Incongruent right error Normal 1098
16 158 LeftSmaller PercIExp Prime_1N Target_9N MJEiAGh MDdGKgH Incongruent left correct Normal 876
16 159 LeftSmaller PercIExp Prime_4N Target_6A KdkhDFJ bEHMFhG Incongruent right error Normal 793
16 160 LeftSmaller PercIExp Prime_1A Target_4N CJBflek HkGJLeE Congruent left correct Normal 396
16 161 LeftSmaller PercIExp Prime_6N Target_4N CdlAicG fKaELMm Incongruent right correct Normal 348
16 162 LeftSmaller PercIExp Prime_6N Target_6A ImfKGhL CdJleKk Congruent left error Normal 101
16 163 LeftSmaller PercIExp Prime_1A Target_1A FfBldCI DIMiehG Congruent right error Normal 161
16 164 LeftSmaller PercIExp Prime_9N Target_4A IjDlFfC JhEKeGH Incongruent left error Normal 832
16 165 LeftSmaller PercIExp Prime_6N Target_6N dKeLBmj EebGlJk Congruent left error Normal 958
16 166 LeftSmaller PercIExp Prime_9A Target_1A DieAbmk ajLiMIm Incongruent right correct Normal 822
16 167 LeftSmaller PercIExp Prime_9A Target_6N JladbFi fHKgiFD Congruent right correct Normal 507
16 168 LeftSmaller PercIExp Prime_1A Target_4A CmFcHif MCjALdf Congruent right error Normal 103
16 169 LeftSmaller PercIExp Prime_4N Target_1N dGLFBaf BLmeJHD Congruent left correct Normal 260
16 170 LeftSmaller PercIExp Prime_9A Target_6A ehCmBaE gjGDiLd Congruent right correct Normal 221
16 171 LeftSmaller PercIExp Prime_4N Target_1A FbjAHBf fHMgjCI Congruent left correct Normal 245
16 172 LeftSmaller PercIExp Prime_4A Target_6A DFaKeMc lkEiDHC Incongruent right error Normal 106
16 173 LeftSmaller PercIExp Prime_9A Target_1N BLJiGhb gCcFAJh Incongruent left error Early 69
16 174 LeftSmaller PercIExp Prime_9N Target_1N CGihMLK kidGKJb Incongruent right correct Early 73
16 175 LeftSmaller PercIExp Prime_9A Target_9N jICLgEi beKckHD Congruent right correct Early 40
16 176 LeftSmaller PercIExp Prime_9N Target_4N DjIbkgG iCDgehk Incongruent left error Early 58
16 177 LeftSmaller PercIExp Prime_1N Target_4N MildHAh BiealFK Congruent left correct Normal 104
16 178 LeftSmaller PercIExp Prime_4N Target_6N IhGbaCA lKgieHF Incongruent right error Normal 4651
16 179 LeftSmaller PercIExp Prime_9A Target_4N HgabFfk ECMjhdk Incongruent left error Normal 408
16 180 LeftSmaller PercIExp Prime_4N Target_9A gcABfEd CAEKihf Incongruent left correct Normal 141
16 181 LeftSmaller PercIExp Prime_4A Target_1N mJjlBaI ALGhfjK Congruent right error Normal 777
16 182 LeftSmaller PercIExp Prime_6A Target_4A BiDcldE kaImAed Incongruent left error Normal 579
16 183 LeftSmaller PercIExp Prime_9N Target_9N bFckmdB eIbMdAh Congruent right correct Normal 490
16 184 LeftSmaller PercIExp Prime_9A Target_4A FAhimjg ejaclGd Incongruent left error Normal 893
16 185 LeftSmaller PercIExp Prime_9N Target_6N BbjCHlD lkCgcDJ Congruent right correct Normal 1180
16 186 LeftSmaller PercIExp Prime_1A Target_6A eagEjlL Fickmjb Incongruent left correct Normal 499
16 187 LeftSmaller PercIExp Prime_4A Target_6N JhEIgkd dbjilcM Incongruent right error Normal 243
16 188 LeftSmaller PercIExp Prime_1N Target_1N cFaEljI hBEgeHi Congruent right error Normal 202
16 189 LeftSmaller PercIExp Prime_6A Target_1N AfEiLcJ fkhBDlA Incongruent right correct Normal 789
16 190 LeftSmaller PercIExp Prime_6N Target_9N bLDJIAg GILBfCj Congruent left error Normal 334
16 191 LeftSmaller PercIExp Prime_6A Target_9N lMaKICH cgFiDLC Congruent right correct Normal 819
16 192 LeftSmaller PercIExp Prime_4A Target_1A AJlMEKH DdGfMiK Congruent left correct Normal 707
16 193 LeftSmaller PercIExp Prime_9N Target_1A MjAHkmh KfdkmCi Incongruent right correct Normal 791
16 194 LeftSmaller PercIExp Prime_6N Target_9A kCjcFmE BdbaIJc Congruent right correct Normal 963
16 195 LeftSmaller PercIExp Prime_6A Target_4N FBfAeHK DlhfAeK Incongruent left error Normal 1134
16 196 LeftSmaller PercIExp Prime_1N Target_6N JmhdejK gMdDFIe Incongruent left correct Normal 1333
16 197 LeftSmaller PercIExp Prime_1A Target_6N ahikmLJ IafiJBd Incongruent right error Normal 765
16 198 LeftSmaller PercIExp Prime_1A Target_9N JFDjLBa bjlAIka Incongruent left correct Normal 805
16 199 LeftSmaller PercIExp Prime_4N Target_9N dFIjEcA EmfhliB Incongruent right error Normal 999
16 200 LeftSmaller PercIExp Prime_4A Target_9N LhiAJHf KMBaAfe Incongruent right error Normal 911
16 201 LeftSmaller PercIExp Prime_9N Target_9A jGIFDHf LiCgGBb Congruent right correct Normal 897
16 202 LeftSmaller PercIExp Prime_4N Target_4N caMAkKg ELKhbId Congruent left correct Normal 736
16 203 LeftSmaller PercIExp Prime_1N Target_4A EHhAgDe DeBafKI Congruent left correct Normal 1004
16 204 LeftSmaller PercIExp Prime_4A Target_9A ladmeIF HheAakM Incongruent right error Normal 488
16 205 LeftSmaller PercIExp Prime_6A Target_9A efhkMHA ijMkEgI Congruent left error Normal 211
16 206 LeftSmaller PercIExp Prime_1N Target_6A fLgmGkM FkdKfIJ Incongruent left correct Normal 313
16 207 LeftSmaller PercIExp Prime_9A Target_9A MJeGALE mMLHelI Congruent right correct Normal 484
16 208 LeftSmaller PercIExp Prime_1N Target_1A hajJAcm BMdGmeC Congruent right error Normal 268
16 209 LeftSmaller PercIExp Prime_4N Target_6A mHgkLiJ dKEjmLf Incongruent left correct Normal 1110
16 210 LeftSmaller PercIExp Prime_1N Target_1N ADdkKFb ElGjhJA Congruent right error Normal 795
16 211 LeftSmaller PercIExp Prime_1A Target_9N jMhdCbG DLbeJjl Incongruent right error Normal 727
16 212 LeftSmaller PercIExp Prime_9N Target_1N fdCGMHj IDMAfkl Incongruent right correct Normal 840
16 213 LeftSmaller PercIExp Prime_9A Target_1A cCmDAEF JDmiMjg Incongruent left error Normal 1589
16 214 LeftSmaller PercIExp Prime_1N Target_4A dcgaiHh cMJfCbI Congruent right error Normal 1263
16 215 LeftSmaller PercIExp Prime_9A Target_6A FeiEcmC cDjafbh Congruent right correct Normal 1415
16 216 LeftSmaller PercIExp Prime_4A Target_9A eKfGkCF CMbhced Incongruent left correct Normal 685
16 217 LeftSmaller PercIExp Prime_6N Target_6A KMbJeEk dlifkgK Congruent right correct Normal 848
16 218 LeftSmaller PercIExp Prime_9N Target_9A IdEeHml ficIkBH Congruent right correct Normal 577
16 219 LeftSmaller PercIExp Prime_6A Target_6A KfFhDAm GLBgEJa Congruent right correct Normal 1166
16 220 LeftSmaller PercIExp Prime_4A Target_6A GifkDjg lgHFcda Incongruent left correct Normal 531
16 221 LeftSmaller PercIExp Prime_4N Target_1N FAiBIaG KFGckAb Congruent left correct Normal 808
16 222 LeftSmaller PercIExp Prime_9N Target_4N bBFChJA iKlHaIL Incongruent left error Normal 1780
16 223 LeftSmaller PercIExp Prime_1N Target_1A McDbmgH LlIEKJG Congruent right error Normal 794
16 224 LeftSmaller PercIExp Prime_9A Target_4A dbfjLDi AcEMGgk Incongruent left error Normal 987
16 225 LeftSmaller PercIExp Prime_6A Target_9A hCKEilb IHclFCk Congruent right correct Normal 554
16 226 LeftSmaller PercIExp Prime_1A Target_6N DBikhCc bLDjBaH Incongruent right error Normal 1054
16 227 LeftSmaller PercIExp Prime_4A Target_4A ledJmFC GmhHEbA Congruent left correct Normal 620
16 228 LeftSmaller PercIExp Prime_1A Target_4A kClgjGM kHjfLAc Congruent left correct Normal 1188
16 229 LeftSmaller PercIExp Prime_4N Target_9A dgAIjCB HmfhIEB Incongruent right error Normal 687
16 230 LeftSmaller PercIExp Prime_6A Target_6N DghEIac GgFebIK Congruent right correct Normal 880
16 231 LeftSmaller PercIExp Prime_6A Target_1A kaDjMif lGehIKF Incongruent left error Normal 1007
16 232 LeftSmaller PercIExp Prime_6N Target_6N cMLdmBD LmDjkch Congruent right correct Normal 905
16 233 LeftSmaller PercIExp Prime_9A Target_6N lGDkdjC eiGIKjc Congruent right correct Normal 846
16 234 LeftSmaller PercIExp Prime_1N Target_6N JcDhieB BidmKjG Incongruent left correct Normal 790
16 235 LeftSmaller PercIExp Prime_9N Target_9N EgIcjbH LjdmKGB Congruent right correct Normal 512
16 236 LeftSmaller PercIExp Prime_1A Target_1N BcCmiMf ahleBCf Congruent left correct Normal 540
16 237 LeftSmaller PercIExp Prime_6A Target_4N FMEGkjc kFIBgAf Incongruent right correct Normal 1237
16 238 LeftSmaller PercIExp Prime_9A Target_9N HdmkELM aEehgCi Congruent right correct Normal 1276
16 239 LeftSmaller PercIExp Prime_9A Target_1N DmKdaLi GMDHijb Incongruent left error Normal 816
16 240 LeftSmaller PercIExp Prime_6N Target_4N BLfgCdc CHBhbIe Incongruent right correct Normal 770
16 241 LeftSmaller PercIExp Prime_9A Target_9A cMJfKgD gEbIFGC Congruent right correct Normal 442
16 242 LeftSmaller PercIExp Prime_6N Target_4A ClimIHB EiGJlBI Incongruent right correct Normal 1012
16 243 LeftSmaller PercIExp Prime_6A Target_1N kaIAEFj lHhkiEm Incongruent left error Normal 559
16 244 LeftSmaller PercIExp Prime_1N Target_9N fIlKJka bMgeDGH Incongruent right error Normal 748
16 245 LeftSmaller PercIExp Prime_9N Target_1A AIEglaC bfEaGed Incongruent left error Normal 1687
16 246 LeftSmaller PercIExp Prime_9N Target_4A FaiKfHl cGfelHE Incongruent right correct Normal 601
16 247 LeftSmaller PercIExp Prime_4A Target_6N fmCLJEK JhejdCb Incongruent right error Normal 542
16 248 LeftSmaller PercIExp Prime_4N Target_4N bBFjIJd jKDadcl Congruent left correct Normal 410
16 249 LeftSmaller PercIExp Prime_1N Target_9A ibJdFHa abmhGkJ Incongruent right error Normal 902
16 250 LeftSmaller PercIExp Prime_1A Target_9A LKMehHI lJkcaCG Incongruent left correct Normal 425
16 251 LeftSmaller PercIExp Prime_1A Target_6A MFfCmcj fBhbKFD Incongruent right error Normal 202
16 252 LeftSmaller PercIExp Prime_6N Target_1A FKbIkHi HMbKGBh Incongruent right correct Normal 150
16 253 LeftSmaller PercIExp Prime_9N Target_6N CkbcBFI fLMChce Congruent left error Normal 299
16 254 LeftSmaller PercIExp Prime_4N Target_1A jMemCAa fGBbEej Congruent right error Normal 105
16 255 LeftSmaller PercIExp Prime_4N Target_6N HjdEifG MLdlJkc Incongruent right error Normal 108
16 256 LeftSmaller PercIExp Prime_1N Target_6A kjLHlEa jMcCaDG Incongruent right error Early 58
16 257 LeftSmaller PercIExp Prime_6A Target_9N cjiDGFL CjDFLJb Congruent left error Normal 184
16 258 LeftSmaller PercIExp Prime_6N Target_9A gCGbEaJ iBdCecM Congruent left error Normal 289
16 259 LeftSmaller PercIExp Prime_9N Target_6A lLFECcB hHmdMiF Congruent right correct Normal 731
16 260 LeftSmaller PercIExp Prime_1A Target_1A fKiGAHc GgjBami Congruent right error Normal 837
16 261 LeftSmaller PercIExp Prime_4N Target_4A LlIEKAe hKHfGBi Congruent left correct Normal 587
16 262 LeftSmaller PercIExp Prime_4A Target_9N edBfjIJ iKfaDcE Incongruent right error Normal 1462
16 263 LeftSmaller PercIExp Prime_6A Target_4A fHKeJlE gBclbjA Incongruent right correct Normal 960
16 264 LeftSmaller PercIExp Prime_4A Target_1N IGJDekf hkbigLc Congruent left correct Normal 939
16 265 LeftSmaller PercIExp Prime_4N Target_9N BCmjHcb jABiGEh Incongruent right error Normal 1179
16 266 LeftSmaller PercIExp Prime_1N Target_4N HbMKLmf lMGckmB Congruent left correct Normal 1145
16 267 LeftSmaller PercIExp Prime_6N Target_9N kJHbMDG FhfjKBE Congruent right correct Normal 1155
16 268 LeftSmaller PercIExp Prime_1A Target_4N kJgabGM MeCbAga Congruent left correct Normal 1088
16 269 LeftSmaller PercIExp Prime_4A Target_4N IdghGlA eIhbBdL Congruent left correct Normal 908
16 270 LeftSmaller PercIExp Prime_4A Target_1A iAFKcfL JMFKelD Congruent left correct Normal 1102
16 271 LeftSmaller PercIExp Prime_9A Target_4N JEmhCAl ELhdjlM Incongruent right correct Normal 1009
16 272 LeftSmaller PercIExp Prime_6N Target_1N JgdmBAe lFGdcfE Incongruent left error Normal 361
17 17 LeftLarger PercIExp Prime_9A Target_1N BhjfEmJ kedEHMh Incongruent left correct Normal 3424
17 18 LeftLarger PercIExp Prime_4A Target_4A EFjkmcL mFCGBkK Congruent right correct Normal 2443
17 19 LeftLarger PercIExp Prime_9A Target_1A CLbjfkB lIgDbhF Incongruent left correct Normal 2650
17 20 LeftLarger PercIExp Prime_4N Target_1A egiLBJk aEjJAel Congruent left error Normal 2390
17 21 LeftLarger PercIExp Prime_4N Target_9N LIHMgBe GKcjIJd Incongruent right correct Normal 2757
17 22 LeftLarger PercIExp Prime_9A Target_6A bdaMDkm JMAdHlF Congruent right error Normal 4107
17 23 LeftLarger PercIExp Prime_9N Target_4N IbHjmfA fbeAJgm Incongruent left correct Normal 3588
17 24 LeftLarger PercIExp Prime_6N Target_1A JcdeILF aDmefBL Incongruent left correct Normal 2553
17 25 LeftLarger PercIExp Prime_1A Target_6A HCcgaFj kbADhgH Incongruent right correct Normal 2999
17 26 LeftLarger PercIExp Prime_6N Target_4N MLmBiGk jBaDhmc Incongruent left correct Normal 3439
17 27 LeftLarger PercIExp Prime_6A Target_6A hMILJca CdGFBDk Congruent right error Normal 3779
17 28 LeftLarger PercIExp Prime_9A Target_6N BKLeEdF LaBCkJc Congruent left correct Normal 2655
17 29 LeftLarger PercIExp Prime_6A Target_6N gfmlDjF aEfDjgm Congruent left correct Normal 3543
17 30 LeftLarger PercIExp Prime_4A Target_9N eaHfmjJ jcbGadB Incongruent right correct Normal 2843
17 31 LeftLarger PercIExp Prime_4N Target_6A mbHEgJi mkchELI Incongruent right correct Normal 2870
17 32 LeftLarger PercIExp Prime_9A Target_4N lJIEfic lBAGaDL Incongruent left correct Normal 2778
17 33 LeftLarger PercIExp Prime_6A Target_4A BFaGflL gCAaEjb Incongruent left correct Late 5233
17 34 LeftLarger PercIExp Prime_9N Target_9A kiGdaJe lIgCmif Congruent right error Normal 2399
17 35 LeftLarger PercIExp Prime_6N Target_4A hfLFMcC CjkHcgB Incongruent left correct Normal 2734
17 36 LeftLarger PercIExp Prime_1N Target_9A IgjkmFJ hmEiJdl Incongruent right correct Normal 2289
17 37 LeftLarger PercIExp Prime_1A Target_1A EFAKaic fbdiJkD Congruent right correct Normal 4065
17 38 LeftLarger PercIExp Prime_4A Target_1A kKLmAEd kdBjibm Congruent right correct Normal 2747
17 39 LeftLarger PercIExp Prime_1A Target_9N dBJheiH Ddcfbgj Incongruent right correct Normal 2632
17 40 LeftLarger PercIExp Prime_6N Target_9N kLGaeDB dmfijLD Congruent left correct Normal 3103
17 41 LeftLarger PercIExp Prime_9N Target_6A cjeHMCi JGCgFcM Congruent left correct Normal 2577
17 42 LeftLarger PercIExp Prime_6A Target_1A IcMDaGF LhbKDcg Incongruent left correct Normal 2174
17 43 LeftLarger PercIExp Prime_6N Target_9A BijFgGk lJHBajL Congruent right error Normal 3440
17 44 LeftLarger PercIExp Prime_4A Target_6N bAdMLGe GcgKIlH Incongruent left error Normal 3201
17 45 LeftLarger PercIExp Prime_1N Target_9N iFgMdBD DchAgJk Incongruent right correct Normal 2863
17 46 LeftLarger PercIExp Prime_9A Target_9N FahfKkc FjeIhcg Congruent right error Normal 2746
17 47 LeftLarger PercIExp Prime_1N Target_1N dmJfFig JjCgIeE Congruent left error Normal 3075
17 48 LeftLarger PercIExp Prime_1A Target_4N gdjhClb BmLGeMc Congruent left error Normal 2534
17 49 LeftLarger PercIExp Prime_1N Target_4N hDJikBA KfIkciM Congruent right correct Normal 3348
17 50 LeftLarger PercIExp Prime_4A Target_9A FghfHDL cCEHJAM Incongruent right correct Normal 2361
17 51 LeftLarger PercIExp Prime_9N Target_6N FmCcMDj eldFBLM Congruent right error Normal 2466
17 52 LeftLarger PercIExp Prime_1A Target_4A gLhmkHi BDhLjHI Congruent left error Normal 3029
17 53 LeftLarger PercIExp Prime_9A Target_9A iLJcFbB FEKMBgG Congruent left correct Normal 3038
17 54 LeftLarger PercIExp Prime_6N Target_1N AlJjCkI JLDfMgK Incongruent right error Normal 2805
17 55 LeftLarger PercIExp Prime_9N Target_1A cmBeEJK LfeKMBg Incongruent left correct Late 6746
17 56 LeftLarger PercIExp Prime_6N Target_6A DdmKgaH facmkCE Congruent right error Late 5027
17 57 LeftLarger PercIExp Prime_4N Target_9A mChgLbB AaIidcm Incongruent right correct Normal 2813
17 58 LeftLarger PercIExp Prime_6A Target_9N JGjHcCb bBaJhje Congruent right error Normal 2551
17 59 LeftLarger PercIExp Prime_1N Target_1A FCfijBK fbkcLga Congruent left error Normal 2893
17 60 LeftLarger PercIExp Prime_4N Target_1N MiLHehl cdCkaJM Congruent left error Normal 2960
17 61 LeftLarger PercIExp Prime_6N Target_6N JGjBAKi kiegLJa Congruent right error Normal 2779
17 62 LeftLarger PercIExp Prime_4N Target_4A kHFJhiB aDbJCeL Congruent left error Normal 2459
17 63 LeftLarger PercIExp Prime_6A Target_1N cAFbDGj LDChEGH Incongruent left correct Normal 2941
17 64 LeftLarger PercIExp Prime_4A Target_1N AiKBhHg hebCBEL Congruent right correct Normal 2177
17 65 LeftLarger PercIExp Prime_4A Target_6A bBKEFDe BekLiKd Incongruent right correct Normal 2430
17 66 LeftLarger PercIExp Prime_4A Target_4N lFmdhgf JdCcGLE Congruent right correct Normal 3291
17 67 LeftLarger PercIExp Prime_1N Target_4A glLJEhB hemdBjk Congruent left error Normal 3084
17 68 LeftLarger PercIExp Prime_9N Target_1N LaiBDHj AacjIgi Incongruent left correct Normal 3614
17 69 LeftLarger PercIExp Prime_4N Target_4N aLDGAIl KghfLIE Congruent right correct Normal 3024
17 70 LeftLarger PercIExp Prime_1A Target_9A BJbICHg labkIdF Incongruent right correct Normal 3312
17 71 LeftLarger PercIExp Prime_1A Target_6N LfFmEBd baCDKhM Incongruent right correct Normal 2702
17 72 LeftLarger PercIExp Prime_9N Target_9N djAhcel cfmlFbe Congruent left correct Normal 3128
17 73 LeftLarger PercIExp Prime_6A Target_9A MkBHejL DghikHJ Congruent right error Normal 3284
17 74 LeftLarger PercIExp Prime_9N Target_4A IkCdlhL iakmhjM Incongruent right error Normal 2974
17 75 LeftLarger PercIExp Prime_4N Target_6N ibkAdMH cHiCKjD Incongruent right correct Normal 3502
17 76 LeftLarger PercIExp Prime_1N Target_6A IhkaHLM GlgCEJj Incongruent left error Normal 3384
17 77 LeftLarger PercIExp Prime_6A Target_4N mdbHFDB ekcHALl Incongruent left correct Normal 2235
17 78 LeftLarger PercIExp Prime_1A Target_1N lbGMEce HaCJlDB Congruent left error Normal 1869
17 79 LeftLarger PercIExp Prime_1N Target_6N iLlJFck mFeDCgj Incongruent right correct Normal 1925
17 80 LeftLarger PercIExp Prime_9A Target_4A lFGBjfa aMkbBcf Incongruent left correct Normal 2431
17 81 LeftLarger PercIExp Prime_6A Target_1A dIfADla hgiEHMd Incongruent left correct Normal 1564
17 82 LeftLarger PercIExp Prime_1A Target_4N mBLEcGg BCeDglj Congruent left error Normal 2215
17 83 LeftLarger PercIExp Prime_1A Target_1N HKkgJLi HcGImAh Congruent left error Normal 2259
17 84 LeftLarger PercIExp Prime_9N Target_1N jDbeiMK jDHcbML Incongruent left correct Normal 2421
17 85 LeftLarger PercIExp Prime_9A Target_9A aeMmdGK AFDMmEH Congruent right error Normal 1670
17 86 LeftLarger PercIExp Prime_4A Target_1A KgMHdGF KDFMfiG Congruent right correct Normal 2009
17 87 LeftLarger PercIExp Prime_1N Target_6A cIfJGDj CbIKclL Incongruent left error Normal 4945
17 88 LeftLarger PercIExp Prime_6N Target_6A adAbFIh ABKahGf Congruent right error Normal 2181
17 89 LeftLarger PercIExp Prime_1N Target_1N hgMcJeA BhCMFDd Congruent right correct Normal 3174
17 90 LeftLarger PercIExp Prime_4A Target_4A KiBJMeL cgeHfkK Congruent left error Normal 1767
17 91 LeftLarger PercIExp Prime_6N Target_1A HEfelih CGLjMIg Incongruent left correct Normal 1864
17 92 LeftLarger PercIExp Prime_9N Target_6A fjLKMmE MJiEmjF Congruent right error Normal 2158
17 93 LeftLarger PercIExp Prime_4N Target_1N fFHagEe eKDhdBj Congruent right correct Normal 1806
17 94 LeftLarger PercIExp Prime_6A Target_6A bIBMmJF IfiBbeJ Congruent left correct Normal 1845
17 95 LeftLarger PercIExp Prime_9N Target_4N jhdHDMB iHeEMBA Incongruent left correct Normal 2814
17 96 LeftLarger PercIExp Prime_9A Target_6N BCILjJm HDkmFbB Congruent left correct Normal 3255
17 97 LeftLarger PercIExp Prime_6N Target_4N kIMBmHL ILlDjgC Incongruent left correct Normal 1962
17 98 LeftLarger PercIExp Prime_6A Target_4N HcdChDe gbkfmHD Incongruent left correct Normal 2058
17 99 LeftLarger PercIExp Prime_4A Target_9N DjHbKcJ mbHLAJh Incongruent right correct Normal 1795
17 100 LeftLarger PercIExp Prime_9N Target_1A MlKEjBL CEIkLdK Incongruent left correct Normal 1672
17 101 LeftLarger PercIExp Prime_9N Target_9N MCijHkG gHklFML Congruent right error Normal 2095
17 102 LeftLarger PercIExp Prime_9A Target_9N iblFeaC bLIlFdk Congruent right error Normal 2061
17 103 LeftLarger PercIExp Prime_9A Target_6A HmabAfk ICHiflc Congruent right error Normal 1967
17 104 LeftLarger PercIExp Prime_4A Target_6A EmefaFJ McEKdGC Incongruent right correct Normal 3382
17 105 LeftLarger PercIExp Prime_4N Target_6A beJkMgi kIbBcKl Incongruent right correct Normal 3141
17 106 LeftLarger PercIExp Prime_1N Target_4N IblGfKH KDdFcBa Congruent left error Normal 2801
17 107 LeftLarger PercIExp Prime_6N Target_4A cIegLJH AbIFBkD Incongruent left correct Normal 2145
17 108 LeftLarger PercIExp Prime_4N Target_9A CLfhAKE hGBfgmK Incongruent right correct Normal 2330
17 109 LeftLarger PercIExp Prime_6A Target_9N bmCMhcJ EejMFGH Congruent right error Normal 2576
17 110 LeftLarger PercIExp Prime_1A Target_9A MHmhcBD kildDga Incongruent right correct Normal 2135
17 111 LeftLarger PercIExp Prime_4A Target_6N gAFHdjI aIBhKbL Incongruent right correct Normal 2277
17 112 LeftLarger PercIExp Prime_1A Target_9N iHGfCBI dBLgmKj Incongruent right correct Normal 2835
17 113 LeftLarger PercIExp Prime_4N Target_9N dJfKILB jalLKCh Incongruent right correct Normal 2516
17 114 LeftLarger PercIExp Prime_6A Target_9A JeBDGaK jIDEdGF Congruent right error Normal 4116
17 115 LeftLarger PercIExp Prime_9A Target_1N ielcbFI IkdJcHF Incongruent left correct Normal 1658
17 116 LeftLarger PercIExp Prime_6A Target_6N hBAiJej fDmAcGd Congruent right error Normal 2148
17 117 LeftLarger PercIExp Prime_9A Target_4N CMmgIdJ EkCHcBd Incongruent left correct Normal 2382
17 118 LeftLarger PercIExp Prime_6N Target_1N eKkGEcA iBcAMkD Incongruent left correct Normal 1433
17 119 LeftLarger PercIExp Prime_4A Target_1N mGahgfH DekFAhg Congruent left error Normal 2415
17 120 LeftLarger PercIExp Prime_4N Target_4N MIKcLeJ aJjEDbK Congruent left error Normal 2043
17 121 LeftLarger PercIExp Prime_9N Target_4A cfKGCia ekgcKHi Incongruent left correct Normal 1855
17 122 LeftLarger PercIExp Prime_4N Target_1A lBbKaDc iDBeGhm Congruent left error Normal 2317
17 123 LeftLarger PercIExp Prime_4N Target_6N FijhmHk bhgImJc Incongruent right correct Normal 2585
17 124 LeftLarger PercIExp Prime_4A Target_9A MkiKGBL jLeIDMf Incongruent right correct Normal 2786
17 125 LeftLarger PercIExp Prime_1A Target_6N clGEBMj GEeKmjb Incongruent right correct Normal 3811
17 126 LeftLarger PercIExp Prime_6A Target_4A JeBCabM kDGFJEh Incongruent left correct Normal 2885
17 127 LeftLarger PercIExp Prime_6N Target_6N mlHDjCF ebkECKG Congruent left correct Normal 2160
17 128 LeftLarger PercIExp Prime_1N Target_9N FDCmMHl CDEeIkF Incongruent left error Normal 2329
17 129 LeftLarger PercIExp Prime_6A Target_1N jFDLGJi GLdDmBK Incongruent left correct Normal 2930
17 130 LeftLarger PercIExp Prime_1N Target_9A HMcLdgk MhLEfcD Incongruent right correct Normal 1906
17 131 LeftLarger PercIExp Prime_6N Target_9N KaCgImh icmGKHk Congruent right error Late 5077
17 132 LeftLarger PercIExp Prime_9N Target_6N fFjaAhm bdELjIe Congruent left correct Normal 4407
17 133 LeftLarger PercIExp Prime_1A Target_1A IJmlFkg mDgJbfd Congruent left error Normal 4538
17 134 LeftLarger PercIExp Prime_1N Target_6N kGLaKJe ihFmcMA Incongruent left error Late 5496
17 135 LeftLarger PercIExp Prime_1N Target_1A hfMdiga IAgJFCM Congruent right correct Normal 2645
17 136 LeftLarger PercIExp Prime_4A Target_4N igJHmIC DjIefGL Congruent left error Normal 2468
17 137 LeftLarger PercIExp Prime_1A Target_6A fDdGLjJ iAcHBaj Incongruent right correct Normal 2828
17 138 LeftLarger PercIExp Prime_4N Target_4A jFBGKdm jFdJmlI Congruent left error Normal 2052
17 139 LeftLarger PercIExp Prime_1N Target_4A kbCAdlE KMEAhBg Congruent right correct Late 5871
17 140 LeftLarger PercIExp Prime_6N Target_9A jhmigFH EGlagCH Congruent right error Normal 1783
17 141 LeftLarger PercIExp Prime_9A Target_1A CdlaLMk HLifhEl Incongruent left correct Normal 1418
17 142 LeftLarger PercIExp Prime_1A Target_4A fJEAbFH AimDKGg Congruent left error Normal 1564
17 143 LeftLarger PercIExp Prime_9N Target_9A LhbFfad LHahldM Congruent right error Normal 1480
17 144 LeftLarger PercIExp Prime_9A Target_4A CMBeGji ieDbHlK Incongruent left correct Normal 1576
17 145 LeftLarger PercIExp Prime_9N Target_6A alBGICj hfHKlDj Congruent right error Normal 2193
17 146 LeftLarger PercIExp Prime_4N Target_4N jGHBLbE mKgliEh Congruent left error Normal 2344
17 147 LeftLarger PercIExp Prime_9A Target_9N HAfmEIl kJMIDlf Congruent right error Normal 2202
17 148 LeftLarger PercIExp Prime_9A Target_6N BidAhDJ JeFaBHh Congruent right error Normal 1941
17 149 LeftLarger PercIExp Prime_6A Target_9A HIJEFCd megkMaC Congruent right error Normal 2991
17 150 LeftLarger PercIExp Prime_4A Target_9A hiHdeCI gEhIcAJ Incongruent right correct Normal 2524
17 151 LeftLarger PercIExp Prime_6A Target_4N MKdkbDI DGgMbEl Incongruent left correct Normal 2211
17 152 LeftLarger PercIExp Prime_9A Target_1N FbjJDIa FBDjMdC Incongruent left correct Late 8204
17 153 LeftLarger PercIExp Prime_1A Target_9N jgFBekK CkHLafi Incongruent right correct Normal 2815
17 154 LeftLarger PercIExp Prime_9N Target_1N CGAkIfb dCMfKej Incongruent left correct Normal 2200
17 155 LeftLarger PercIExp Prime_1A Target_6A KICficj CDbfHAE Incongruent left error Normal 2375
17 156 LeftLarger PercIExp Prime_6A Target_9N IhCGDjA hmgcKCf Congruent left correct Normal 1621
17 157 LeftLarger PercIExp Prime_4A Target_4A LiFDkfI kImghCf Congruent left error Normal 2317
17 158 LeftLarger PercIExp Prime_6N Target_4N AEkLhBm AFMIlad Incongruent left correct Normal 1600
17 159 LeftLarger PercIExp Prime_1N Target_1N dmMDFgG LHiAGMB Congruent left error Normal 2797
17 160 LeftLarger PercIExp Prime_1N Target_6N EdKFmGj bcAfFgL Incongruent right correct Normal 1698
17 161 LeftLarger PercIExp Prime_4N Target_9N ABmLFkH ldELbaj Incongruent right correct Normal 2089
17 162 LeftLarger PercIExp Prime_9A Target_1A DagmEBl HiACDmK Incongruent left correct Normal 2079
17 163 LeftLarger PercIExp Prime_4N Target_1N bIjcmei JfhcbLI Congruent right correct Normal 1964
17 164 LeftLarger PercIExp Prime_1N Target_9A LHbmMJA lgmGcKA Incongruent right correct Normal 1958
17 165 LeftLarger PercIExp Prime_6A Target_1A jdmDCbJ JjKlECb Incongruent left correct Normal 1974
17 166 LeftLarger PercIExp Prime_9N Target_6N iCIfalb EmgICcj Congruent right error Normal 2716
17 167 LeftLarger PercIExp Prime_1A Target_1A ahDLlfG aJLkCDh Congruent right correct Normal 3399
17 168 LeftLarger PercIExp Prime_4A Target_1A mlJejMh jhBmKGg Congruent left error Normal 2621
17 169 LeftLarger PercIExp Prime_9A Target_9A DHdGiEf AJebfhd Congruent right error Normal 2576
17 170 LeftLarger PercIExp Prime_1N Target_4N MKlkACL FbALMJm Congruent right correct Normal 3918
17 171 LeftLarger PercIExp Prime_4N Target_4A jmkbfCM FBJhMGD Congruent left error Normal 1627
17 172 LeftLarger PercIExp Prime_1A Target_4N HgClkAM bMEgjkG Congruent left error Normal 1979
17 173 LeftLarger PercIExp Prime_6A Target_6N EKaHcmJ gilDKef Congruent right error Normal 2360
17 174 LeftLarger PercIExp Prime_4N Target_9A FhjLkDf gIGLBFl Incongruent right correct Normal 2709
17 175 LeftLarger PercIExp Prime_4A Target_9N LDlhGFK bJAhiIC Incongruent right correct Normal 3890
17 176 LeftLarger PercIExp Prime_1N Target_6A DmhBMGA DkMamKE Incongruent left error Normal 4352
17 177 LeftLarger PercIExp Prime_6A Target_6A eLmkHCg dbKFfAi Congruent right error Normal 2368
17 178 LeftLarger PercIExp Prime_6N Target_9A HbmJFdD DJkMfGA Congruent right error Normal 3272
17 179 LeftLarger PercIExp Prime_6N Target_1N fMglHcG AdbaGeh Incongruent left correct Normal 1512
17 180 LeftLarger PercIExp Prime_4A Target_6N FfdIjgE BlFkCMb Incongruent left error Normal 1755
17 181 LeftLarger PercIExp Prime_9N Target_4N hgabfle aHihALc Incongruent left correct Normal 1847
17 182 LeftLarger PercIExp Prime_4A Target_4N ifJKgHh FiKEBaD Congruent left error Normal 2363
17 183 LeftLarger PercIExp Prime_9N Target_9A IAcjLEe ChBajDI Congruent left correct Normal 3508
17 184 LeftLarger PercIExp Prime_9N Target_4A KEbHJaC GglLfjH Incongruent left correct Late 5792
17 185 LeftLarger PercIExp Prime_9N Target_9N HGefilm GIejlJB Congruent right error Normal 2748
17 186 LeftLarger PercIExp Prime_9A Target_4N hFKemBd cFKklIf Incongruent right error Normal 2911
17 187 LeftLarger PercIExp Prime_6A Target_4A imBGdcK DIGkKah Incongruent left correct Normal 1717
17 188 LeftLarger PercIExp Prime_1A Target_6N EhDckMG gfAJBme Incongruent right correct Normal 1228
17 189 LeftLarger PercIExp Prime_6N Target_4A gKMiDLd bdliDIj Incongruent right error Normal 2684
17 190 LeftLarger PercIExp Prime_1A Target_4A cEbFhiL eLMAmGD Congruent left error Normal 2094
17 191 LeftLarger PercIExp Prime_1N Target_4A lCbgABK fklGCJe Congruent right correct Normal 4040
17 192 LeftLarger PercIExp Prime_4A Target_1N EGHfekj mKCjAaJ Congruent right correct Normal 2094
17 193 LeftLarger PercIExp Prime_1A Target_9A HcECmBM amkjHLe Incongruent right correct Normal 1995
17 194 LeftLarger PercIExp Prime_9A Target_4A fIHDClE DHjFIeJ Incongruent left correct Normal 1872
17 195 LeftLarger PercIExp Prime_4A Target_6A flAKLIb jcfkElh Incongruent right correct Normal 3088
17 196 LeftLarger PercIExp Prime_1N Target_9N iMKAfFj GJMLfmC Incongruent right correct Normal 2080
17 197 LeftLarger PercIExp Prime_4N Target_6N JFfmhbG lkdMigJ Incongruent left error Normal 2425
17 198 LeftLarger PercIExp Prime_4N Target_1A cDIkFdi iHMGBjl Congruent left error Normal 2399
17 199 LeftLarger PercIExp Prime_6N Target_6A FHihJDf kBdLhga Congruent right error Normal 2392
17 200 LeftLarger PercIExp Prime_9N Target_1A FIDAbEC kFDfcCa Incongruent left correct Normal 2471
17 201 LeftLarger PercIExp Prime_6A Target_1N EIjLKiC KMJCHDd Incongruent left correct Normal 2714
17 202 LeftLarger PercIExp Prime_4N Target_6A lGECgAi lgdbJAK Incongruent right correct Normal 2566
17 203 LeftLarger PercIExp Prime_1N Target_1A jckJMfg MegkLKA Congruent right correct Normal 3195
17 204 LeftLarger PercIExp Prime_6N Target_1A ABhMiCc cdiGbBf Incongruent right error Normal 2648
17 205 LeftLarger PercIExp Prime_6N Target_6N FIDLbiG mhegbEM Congruent left correct Normal 2489
17 206 LeftLarger PercIExp Prime_1A Target_1N ikIdLem lHkmIGM Congruent right correct Normal 3349
17 207 LeftLarger PercIExp Prime_6N Target_9N deBMaED CglcfBA Congruent left correct Normal 2558
17 208 LeftLarger PercIExp Prime_9A Target_6A eLiCGJd iEfbldH Congruent right error Normal 3529
17 209 LeftLarger PercIExp Prime_1A Target_6N AEijBIG cibDGHg Incongruent right correct Normal 3355
17 210 LeftLarger PercIExp Prime_9A Target_6A JMcLbmd CHhMekc Congruent left correct Normal 2933
17 211 LeftLarger PercIExp Prime_9N Target_9N IgFGaAL HaLGDhK Congruent right error Normal 1505
17 212 LeftLarger PercIExp Prime_6A Target_4A elCdBFH blmMkeE Incongruent right error Normal 2354
17 213 LeftLarger PercIExp Prime_9N Target_9A BiHdAGJ glhmBdK Congruent left correct Normal 2395
17 214 LeftLarger PercIExp Prime_1N Target_1A IGljfca EiGcFbl Congruent left error Normal 2163
17 215 LeftLarger PercIExp Prime_9N Target_4A IAFkCHJ iHFmCKj Incongruent left correct Normal 3275
17 216 LeftLarger PercIExp Prime_9N Target_1A EHKhbMJ eaclGkm Incongruent left correct Normal 2592
17 217 LeftLarger PercIExp Prime_9N Target_6A MdcIekj hDMbAiE Congruent right error Normal 1489
17 218 LeftLarger PercIExp Prime_1N Target_4A elEmCIa bCHMigG Congruent left error Normal 1865
17 219 LeftLarger PercIExp Prime_6N Target_1N CgiIedB cdmFAHi Incongruent right error Normal 4545
17 220 LeftLarger PercIExp Prime_1N Target_6N LkaMEGi AJjcHDk Incongruent right correct Normal 1811
17 221 LeftLarger PercIExp Prime_4N Target_4A agBldGc MdALDlk Congruent left error Normal 2083
17 222 LeftLarger PercIExp Prime_4N Target_6N dEjaGJh jcLefIG Incongruent right correct Normal 4110
17 223 LeftLarger PercIExp Prime_6N Target_9A jgFEmcG KjEbiCh Congruent left correct Normal 4079
17 224 LeftLarger PercIExp Prime_6N Target_4N chfDBJM FBIJDfK Incongruent left correct Normal 2739
17 225 LeftLarger PercIExp Prime_4A Target_1N HfaLGgD geKDGfF Congruent left error Normal 1763
17 226 LeftLarger PercIExp Prime_1A Target_6A KELjade jLMEKkH Incongruent right correct Late 5353
17 227 LeftLarger PercIExp Prime_1A Target_4A MfCKmhD AjbCFkg Congruent left error Normal 2452
17 228 LeftLarger PercIExp Prime_6N Target_1A FbAmfja Bdcbhfi Incongruent left correct Normal 2095
17 229 LeftLarger PercIExp Prime_1N Target_6A amlfFeH HkiGfjh Incongruent right correct Normal 1613
17 230 LeftLarger PercIExp Prime_1N Target_9A GLhHMAE ABfGFHk Incongruent right correct Normal 1963
17 231 LeftLarger PercIExp Prime_4A Target_9N aIiGDFg edMbgam Incongruent right correct Normal 2014
17 232 LeftLarger PercIExp Prime_9A Target_1A AELkhKm jJbBgec Incongruent left correct Normal 1886
17 233 LeftLarger PercIExp Prime_6A Target_1A DaJCeIB MIamDbl Incongruent left correct Normal 1866
17 234 LeftLarger PercIExp Prime_6A Target_4N FehDKgE ALgBdkC Incongruent left correct Normal 2453
17 235 LeftLarger PercIExp Prime_1A Target_1A DkHcBiE DdFJKbM Congruent left error Normal 2513
17 236 LeftLarger PercIExp Prime_9A Target_1N KLJalGf fIjKlbG Incongruent left correct Normal 2181
17 237 LeftLarger PercIExp Prime_4N Target_4N afbMlCj fKcbBhm Congruent right correct Normal 2200
17 238 LeftLarger PercIExp Prime_6A Target_9N MbHghfd HaFMEgi Congruent left correct Normal 2509
17 239 LeftLarger PercIExp Prime_9N Target_4N FbCdEeM jaflIhG Incongruent left correct Normal 2376
17 240 LeftLarger PercIExp Prime_9N Target_1N jKIChAl gIJahkd Incongruent right error Normal 2021
17 241 LeftLarger PercIExp Prime_6A Target_6A Kimghdb kLecldC Congruent right error Normal 2507
17 242 LeftLarger PercIExp Prime_4N Target_9A DClbJIk LEbFale Incongruent left error Normal 2008
17 243 LeftLarger PercIExp Prime_4A Target_9A aCMlEdH bmLIGCE Incongruent left error Normal 1791
17 244 LeftLarger PercIExp Prime_9A Target_4N alAeEhm DakGKhB Incongruent left correct Normal 1463
17 245 LeftLarger PercIExp Prime_1A Target_9A cFgmLDi GCKAckB Incongruent right correct Normal 1266
17 246 LeftLarger PercIExp Prime_1A Target_9N bkLEGHA aiGKIdk Incongruent right correct Normal 1930
17 247 LeftLarger PercIExp Prime_1N Target_9N dJDBFEb jhfcdGe Incongruent right correct Normal 1761
17 248 LeftLarger PercIExp Prime_6N Target_9N kKClJac BejLDKa Congruent right error Normal 2265
17 249 LeftLarger PercIExp Prime_9N Target_6N FcIkfaJ macjfKF Congruent right error Normal 3436
17 250 LeftLarger PercIExp Prime_6N Target_6A iAgcmfF fDlEGKJ Congruent right error Normal 2255
17 251 LeftLarger PercIExp Prime_9A Target_9A dCIBlGb IdDgaLc Congruent right error Normal 1933
17 252 LeftLarger PercIExp Prime_4N Target_1N AIJCEKl keJfFhj Congruent left error Normal 1715
17 253 LeftLarger PercIExp Prime_6N Target_6N bfikEmJ jGdCKLA Congruent left correct Normal 2664
17 254 LeftLarger PercIExp Prime_4A Target_4N KMFHhdG dkgGLFM Congruent left error Normal 2246
17 255 LeftLarger PercIExp Prime_1N Target_4N MfLDJKI LHJAKED Congruent left error Normal 2830
17 256 LeftLarger PercIExp Prime_6A Target_9A mAIdLDh fJAGcbk Congruent right error Normal 2467
17 257 LeftLarger PercIExp Prime_4N Target_1A LdgmJHE JkCKAGI Congruent right correct Normal 2549
17 258 LeftLarger PercIExp Prime_9A Target_9N JeaclAE BLfiKJm Congruent right error Normal 2597
17 259 LeftLarger PercIExp Prime_1A Target_4N bjlDFmB lHIBaiK Congruent right correct Normal 3337
17 260 LeftLarger PercIExp Prime_6N Target_4A FCIAldB iLMhGAK Incongruent right error Normal 2995
17 261 LeftLarger PercIExp Prime_4A Target_6A DeFbAmL kgIHKLl Incongruent right correct Normal 3442
17 262 LeftLarger PercIExp Prime_9A Target_6N iHGIgCE cmDbeLB Congruent left correct Normal 2580
17 263 LeftLarger PercIExp Prime_6A Target_1N KIidFbC BikjgFG Incongruent left correct Normal 2516
17 264 LeftLarger PercIExp Prime_4N Target_9N HBhacgl GJHjhbL Incongruent left error Normal 2364
17 265 LeftLarger PercIExp Prime_4A Target_4A ckgdHfa GIAJcEC Congruent left error Normal 2720
17 266 LeftLarger PercIExp Prime_4A Target_6N DlFcHdb bdGHJLK Incongruent right correct Normal 2282
17 267 LeftLarger PercIExp Prime_6A Target_6N EACIDGd bKLfdiI Congruent left correct Normal 1991
17 268 LeftLarger PercIExp Prime_4A Target_1A MkAEjmh EeFbCHf Congruent left error Normal 2445
17 269 LeftLarger PercIExp Prime_1N Target_1N iGCBKIh aCkAMKc Congruent right correct Normal 3540
17 270 LeftLarger PercIExp Prime_1A Target_1N gemFJCB kFfjlAE Congruent left error Normal 3231
17 271 LeftLarger PercIExp Prime_4N Target_6A AhdgGlB CceFlBD Incongruent right correct Normal 3005
17 272 LeftLarger PercIExp Prime_9A Target_4A jLlAeiB hGleCck Incongruent left correct Normal 2981
18 17 LeftSmaller PercIExp Prime_4N Target_9A gEHFkGC hHAcGid Incongruent right error Normal 312
18 18 LeftSmaller PercIExp Prime_6A Target_6N lbmAgFd gcLfADM Congruent left error Normal 245
18 19 LeftSmaller PercIExp Prime_4N Target_1N HKabiJc EHMedKi Congruent left correct Normal 232
18 20 LeftSmaller PercIExp Prime_1A Target_1A fFLGlMj LkjdHia Congruent right error Normal 184
18 21 LeftSmaller PercIExp Prime_1N Target_1A FhDlKHd JaEDLjH Congruent right error Normal 193
18 22 LeftSmaller PercIExp Prime_9A Target_1N JGlFHdj eMlKEmF Incongruent left error Normal 205
18 23 LeftSmaller PercIExp Prime_1A Target_1N HBDJLih AlhBcek Congruent right error Normal 203
18 24 LeftSmaller PercIExp Prime_6N Target_9A AEIjgkl gGiDHbd Congruent right correct Normal 331
18 25 LeftSmaller PercIExp Prime_6A Target_6A KbmdaDH bkJljic Congruent left error Normal 593
18 26 LeftSmaller PercIExp Prime_6A Target_1A BdGDahK aJEGCeB Incongruent left error Normal 577
18 27 LeftSmaller PercIExp Prime_9N Target_6A KHjaEhl kEBjAad Congruent right correct Normal 562
18 28 LeftSmaller PercIExp Prime_9A Target_4A AfHkDJI GCKJcjh Incongruent right correct Normal 992
18 29 LeftSmaller PercIExp Prime_6A Target_4N jmHcaBE bMEHjcd Incongruent right correct Normal 981
18 30 LeftSmaller PercIExp Prime_4A Target_9N JLGldjB LibJdAa Incongruent left correct Normal 1167
18 31 LeftSmaller PercIExp Prime_6N Target_4N GELDMhm DfkjcAI Incongruent right correct Normal 729
18 32 LeftSmaller PercIExp Prime_1N Target_9A dIblChL CElaDKi Incongruent left correct Normal 980
18 33 LeftSmaller PercIExp Prime_1A Target_6N dIjhHia mglMHec Incongruent left correct Normal 941
18 34 LeftSmaller PercIExp Prime_1N Target_1N GHbcBmg KigGhbM Congruent right error Normal 978
18 35 LeftSmaller PercIExp Prime_1N Target_4A JceEGBa IKiJMbA Congruent right error Normal 487
18 36 LeftSmaller PercIExp Prime_1A Target_4A deADIFL gGEIfba Congruent right error Normal 459
18 37 LeftSmaller PercIExp Prime_4A Target_1A bEIBgil ahjmIbG Congruent left correct Normal 503
18 38 LeftSmaller PercIExp Prime_1A Target_9A DdaChbi BJeadCb Incongruent left correct Normal 1169
18 39 LeftSmaller PercIExp Prime_1N Target_6N IHMBide BGJfKhg Incongruent left correct Normal 1716
18 40 LeftSmaller PercIExp Prime_4A Target_6N hjJgdGf maGCflB Incongruent right error Normal 492
18 41 LeftSmaller PercIExp Prime_9A Target_9A dKJMIEF MHIKbDe Congruent right correct Normal 461
18 42 LeftSmaller PercIExp Prime_9A Target_9N jkhiegI IjilHkA Congruent left error Normal 902
18 43 LeftSmaller PercIExp Prime_9N Target_9A AekJDfE BCeAhgi Congruent right correct Normal 1192
18 44 LeftSmaller PercIExp Prime_9N Target_6N BbGadeA hDMCHaE Congruent right correct Normal 920
18 45 LeftSmaller PercIExp Prime_1N Target_4N lgjMemK haDmHiJ Congruent left correct Normal 455
18 46 LeftSmaller PercIExp Prime_9A Target_6N gJihblj bGkhAHl Congruent right correct Normal 551
18 47 LeftSmaller PercIExp Prime_4A Target_1N cbekFBL HKAImMi Congruent left correct Normal 502
18 48 LeftSmaller PercIExp Prime_6N Target_1A CgEKLki FIdAMaf Incongruent left error Normal 490
18 49 LeftSmaller PercIExp Prime_1A Target_6A hceMJkl kaibKAC Incongruent left correct Normal 494
18 50 LeftSmaller PercIExp Prime_9N Target_4N DdElibH efdaljC Incongruent right correct Normal 1011
18 51 LeftSmaller PercIExp Prime_9A Target_1A fkKdlBJ ELeaFcA Incongruent right correct Normal 763
18 52 LeftSmaller PercIExp Prime_1A Target_9N bKBFLDC bIFMJli Incongruent left correct Normal 650
18 53 LeftSmaller PercIExp Prime_6N Target_6A AflihHK kDdbfCm Congruent left error Normal 458
18 54 LeftSmaller PercIExp Prime_1N Target_6A hKMLciC KHeEjLm Incongruent left correct Normal 384
18 55 LeftSmaller PercIExp Prime_1N Target_9N bfBLgjk LMBcFCI Incongruent right error Normal 651
18 56 LeftSmaller PercIExp Prime_6N Target_6N mhJeCiL MlGdhgj Congruent right correct Normal 738
18 57 LeftSmaller PercIExp Prime_9N Target_1A DMlBhed BiEGfgl Incongruent right correct Normal 713
18 58 LeftSmaller PercIExp Prime_6N Target_1N KfghaIA eHkGhbm Incongruent left error Normal 429
18 59 LeftSmaller PercIExp Prime_6A Target_4A BfHKFem mDkdagf Incongruent right correct Normal 1225
18 60 LeftSmaller PercIExp Prime_6A Target_9N mfIFciM ECdDeBi Congruent right correct Normal 479
18 61 LeftSmaller PercIExp Prime_9N Target_1N FkAhmEJ IHCEfFG Incongruent left error Normal 364
18 62 LeftSmaller PercIExp Prime_4N Target_4N CkBJIfb JiACfaB Congruent right error Normal 952
18 63 LeftSmaller PercIExp Prime_9A Target_6A mfEilch kALHdJa Congruent left error Normal 1064
18 64 LeftSmaller PercIExp Prime_6N Target_9N eBcbALj AaHCIEJ Congruent left error Normal 864
18 65 LeftSmaller PercIExp Prime_1A Target_4N jJkcDHA JdehmIc Congruent left correct Normal 646
18 66 LeftSmaller PercIExp Prime_4A Target_4N LFiGImH BhJMKDc Congruent right error Normal 395
18 67 LeftSmaller PercIExp Prime_4A Target_6A jGfkcmb gadHMhf Incongruent right error Normal 328
18 68 LeftSmaller PercIExp Prime_4A Target_4A eBEMHdD KBDHAke Congruent left correct Normal 794
18 69 LeftSmaller PercIExp Prime_9N Target_9N IglFiGH HfKcBAg Congruent left error Normal 481
18 70 LeftSmaller PercIExp Prime_4N Target_6A KFlfIGj EKHFLdh Incongruent left correct Normal 433
18 71 LeftSmaller PercIExp Prime_4N Target_1A aABKlfI kjDhFAE Congruent left correct Normal 332
18 72 LeftSmaller PercIExp Prime_6N Target_4A KHBbhEM kFEhBgA Incongruent right correct Normal 664
18 73 LeftSmaller PercIExp Prime_9A Target_4N ADgkCbI kELlgGI Incongruent right correct Normal 818
18 74 LeftSmaller PercIExp Prime_6A Target_9A AJBKIFl IiKFlfj Congruent left error Normal 588
18 75 LeftSmaller PercIExp Prime_4N Target_6N ehEkiCf HcAjDFC Incongruent left correct Normal 420
18 76 LeftSmaller PercIExp Prime_6A Target_1N KdBEDAl acdhEFM Incongruent right correct Normal 573
18 77 LeftSmaller PercIExp Prime_4A Target_9A dgCbKFm GHkmDLe Incongruent right error Normal 1132
18 78 LeftSmaller PercIExp Prime_9N Target_4A kLmhcbB FLGIgCf Incongruent left error Normal 431
18 79 LeftSmaller PercIExp Prime_4N Target_4A GaMkHBL HGjMkBK Congruent left correct Normal 1413
18 80 LeftSmaller PercIExp Prime_4N Target_9N ADlGJKM fLFiAHm Incongruent right error Normal 489
18 81 LeftSmaller PercIExp Prime_9N Target_1A MeLDagh DfiLBcG Incongruent left error Normal 349
18 82 LeftSmaller PercIExp Prime_9A Target_4N MmJgiAK FeEkIfK Incongruent right correct Normal 526
18 83 LeftSmaller PercIExp Prime_9N Target_6A aBFehLH CMKecjb Congruent right correct Normal 526
18 84 LeftSmaller PercIExp Prime_1A Target_4A eDimjgL CfDekGA Congruent left correct Normal 453
18 85 LeftSmaller PercIExp Prime_9N Target_4N AIfgHKC fMhmbHA Incongruent right correct Normal 977
18 86 LeftSmaller PercIExp Prime_4N Target_6A aCHkiJh CcLbKaf Incongruent left correct Normal 419
18 87 LeftSmaller PercIExp Prime_1A Target_1N gFGCjJh amFfECg Congruent right error Normal 326
18 88 LeftSmaller PercIExp Prime_6N Target_9A JIBeMHf FAjkHfh Congruent left error Normal 391
18 89 LeftSmaller PercIExp Prime_6A Target_6A EkMgDcG IcmbGfa Congruent left error Normal 290
18 90 LeftSmaller PercIExp Prime_9A Target_9N JdCIHGm aAceKjb Congruent right correct Normal 360
18 91 LeftSmaller PercIExp Prime_1N Target_1N gDHbIFk GaFJdhA Congruent left correct Normal 363
18 92 LeftSmaller PercIExp Prime_1N Target_9N jbhklmB MgahmJb Incongruent left correct Normal 370
18 93 LeftSmaller PercIExp Prime_4A Target_9A KeBJbfH dBLiKHM Incongruent left correct Normal 468
18 94 LeftSmaller PercIExp Prime_9N Target_1N FmDHCfK djKLGhI Incongruent left error Normal 588
18 95 LeftSmaller PercIExp Prime_1N Target_6N hIiAlKb dDhgBmI Incongruent right error Normal 421
18 96 LeftSmaller PercIExp Prime_6N Target_6N CELcheH BbjDkHE Congruent right correct Normal 469
18 97 LeftSmaller PercIExp Prime_9A Target_6A JfjBhHk cAJGeCE Congruent left error Normal 609
18 98 LeftSmaller PercIExp Prime_1N Target_1A GaBlgAc DihHkfC Congruent left correct Normal 467
18 99 LeftSmaller PercIExp Prime_6N Target_4N bGKlegI GAEJIHj Incongruent left error Normal 954
18 100 LeftSmaller PercIExp Prime_1N Target_6A jFHIGEm bjMAiGh Incongruent left correct Normal 354
18 101 LeftSmaller PercIExp Prime_4A Target_4N KLcdDCe FkaKDbg Congruent right error Normal 422
18 102 LeftSmaller PercIExp Prime_6N Target_1A idLhEbc eKjabiD Incongruent right correct Normal 433
18 103 LeftSmaller PercIExp Prime_6A Target_1N JLjfbgH bcmkFHi Incongruent left error Normal 503
18 104 LeftSmaller PercIExp Prime_9N Target_4A iKjJafl bKdlcAD Incongruent right correct Normal 485
18 105 LeftSmaller PercIExp Prime_6A Target_6N FGfdjLa AKfFcIM Congruent right correct Normal 523
18 106 LeftSmaller PercIExp Prime_6N Target_9N iDCfhBb DMbegEC Congruent right correct Normal 1095
18 107 LeftSmaller PercIExp Prime_4A Target_6N hgLijDl FGheiBA Incongruent left correct Normal 584
18 108 LeftSmaller PercIExp Prime_4N Target_6N EkJejFa EHmbdGC Incongruent right error Normal 784
18 109 LeftSmaller PercIExp Prime_6N Target_6A HCgMJDE KcdblGa Congruent right correct Normal 475
18 110 LeftSmaller PercIExp Prime_6N Target_1N dfkHLeC EmCiMej Incongruent right correct Normal 950
18 111 LeftSmaller PercIExp Prime_4N Target_1A jlGHEFg EmAGIdg Congruent right error Normal 585
18 112 LeftSmaller PercIExp Prime_6A Target_9N dMBiILG FmEcdBM Congruent left error Normal 394
18 113 LeftSmaller PercIExp Prime_6A Target_9A dfechEg gDMhciC Congruent left error Normal 361
18 114 LeftSmaller PercIExp Prime_4N Target_9A CcbdkMA CDdcfKB Incongruent right error Normal 1364
18 115 LeftSmaller PercIExp Prime_9A Target_6N cBEkCAF bdGDjHi Congruent right correct Normal 499
18 116 LeftSmaller PercIExp Prime_6N Target_4A CcHDhLa AdjgHLi Incongruent right correct Normal 846
18 117 LeftSmaller PercIExp Prime_1A Target_1A ljcKfkB ICHMFLg Congruent left correct Normal 306
18 118 LeftSmaller PercIExp Prime_1N Target_9A FclMfik aIgCHdE Incongruent left correct Normal 341
18 119 LeftSmaller PercIExp Prime_4A Target_9N HFJkGIE aIbHLcA Incongruent left correct Normal 341
18 120 LeftSmaller PercIExp Prime_4A Target_1A AbhFJMk aHkLGmF Congruent right error Normal 644
18 121 LeftSmaller PercIExp Prime_6A Target_4N DeEfiFJ CJhgGDL Incongruent right correct Normal 370
18 122 LeftSmaller PercIExp Prime_4N Target_1N ceMFBfl adjECKB Congruent left correct Normal 503
18 123 LeftSmaller PercIExp Prime_1A Target_9N gLAikKd CaJlkDI Incongruent left correct Normal 364
18 124 LeftSmaller PercIExp Prime_1A Target_6N KMLimka EkLDHIM Incongruent left correct Normal 442
18 125 LeftSmaller PercIExp Prime_9A Target_4A biBdLcF HBkhCIm Incongruent right correct Normal 589
18 126 LeftSmaller PercIExp Prime_9N Target_6N HDlALed cCkjIld Congruent right correct Normal 791
18 127 LeftSmaller PercIExp Prime_1A Target_6A GbjLihE FEDhcBG Incongruent right error Normal 565
18 128 LeftSmaller PercIExp Prime_9A Target_9A gIhediK GjkmhCc Congruent left error Normal 869
18 129 LeftSmaller PercIExp Prime_1N Target_4A EiDfCIk mkFIKfC Congruent left correct Normal 504
18 130 LeftSmaller PercIExp Prime_6A Target_1A bckgGiE BMmADCf Incongruent right correct Normal 527
18 131 LeftSmaller PercIExp Prime_4N Target_4A CdGhIfj BilGCAJ Congruent right error Normal 608
18 132 LeftSmaller PercIExp Prime_1A Target_4N BCDdhkG GbAgkfh Congruent right error Normal 808
18 133 LeftSmaller PercIExp Prime_9A Target_1A mHheEbL DILghAm Incongruent right correct Normal 903
18 134 LeftSmaller PercIExp Prime_4A Target_1N HIAmlCj fAlFJcC Congruent right error Normal 1182
18 135 LeftSmaller PercIExp Prime_9N Target_9A MmKkgFJ AehjHCK Congruent left error Normal 1010
18 136 LeftSmaller PercIExp Prime_6A Target_4A kceiILb cGlfkDm Incongruent left error Normal 423
18 137 LeftSmaller PercIExp Prime_1N Target_4N AkGlCEK meJcdEI Congruent right error Normal 507
18 138 LeftSmaller PercIExp Prime_4A Target_4A liDgdhE bJgaFlG Congruent left correct Normal 629
18 139 LeftSmaller PercIExp Prime_4N Target_9N MgjCGfJ HidcGKD Incongruent left correct Normal 546
18 140 LeftSmaller PercIExp Prime_9A Target_1N jgLHiBe gcDbAjJ Incongruent right correct Normal 384
18 141 LeftSmaller PercIExp Prime_4N Target_4N egiDbmB HDbflFm Congruent left correct Normal 488
18 142 LeftSmaller PercIExp Prime_1A Target_9A JKAFaiH LEClIKB Incongruent left correct Normal 698
18 143 LeftSmaller PercIExp Prime_9N Target_9N CDBbmdM aiDKfhM Congruent right correct Normal 1194
18 144 LeftSmaller PercIExp Prime_4A Target_6A KCJDhIG mhMeKDE Incongruent left correct Normal 662
18 145 LeftSmaller PercIExp Prime_6A Target_6N caBIKAJ FecgfGa Congruent left error Normal 431
18 146 LeftSmaller PercIExp Prime_9N Target_4N kGKbCga jlAMHKc Incongruent right correct Normal 324
18 147 LeftSmaller PercIExp Prime_1A Target_6N igLDHhk BjAelhL Incongruent left correct Normal 297
18 148 LeftSmaller PercIExp Prime_9N Target_1A ICLgFlh hHIfbiD Incongruent left error Normal 470
18 149 LeftSmaller PercIExp Prime_9A Target_4A BhEDbJf hcAHaLk Incongruent left error Normal 439
18 150 LeftSmaller PercIExp Prime_6A Target_4A AIBEliC kmDLedg Incongruent right correct Normal 385
18 151 LeftSmaller PercIExp Prime_6A Target_9A ikICMBA JLEgahG Congruent left error Normal 361
18 152 LeftSmaller PercIExp Prime_1A Target_9N FcjkaLJ aLgJcfF Incongruent right error Normal 332
18 153 LeftSmaller PercIExp Prime_1N Target_4A EMBFlID GAiJbkl Congruent left correct Normal 277
18 154 LeftSmaller PercIExp Prime_4A Target_4N GgahMHF FAflmjD Congruent left correct Normal 370
18 155 LeftSmaller PercIExp Prime_6A Target_6A gmDGfLc eBgLibJ Congruent right correct Normal 338
18 156 LeftSmaller PercIExp Prime_1A Target_1N gFcfHDe mfBbdFc Congruent right error Normal 505
18 157 LeftSmaller PercIExp Prime_1N Target_6N lKaLhIJ miCJBbc Incongruent left correct Normal 334
18 158 LeftSmaller PercIExp Prime_4A Target_6A CIGEfKJ facblDM Incongruent left correct Normal 637
18 159 LeftSmaller PercIExp Prime_4N Target_6N dDjMflH eDcdGbl Incongruent left correct Normal 249
18 160 LeftSmaller PercIExp Prime_6A Target_9N BFLjdED lMDfIjL Congruent right correct Normal 324
18 161 LeftSmaller PercIExp Prime_1A Target_4A cDgLeMJ mAIaJlD Congruent right error Normal 399
18 162 LeftSmaller PercIExp Prime_4N Target_4N JBicbAh dMHcagF Congruent left correct Normal 360
18 163 LeftSmaller PercIExp Prime_1A Target_9A dhkMLfl cMdhbDE Incongruent right error Normal 298
18 164 LeftSmaller PercIExp Prime_9N Target_4A DGcjdeH bMmgEhi Incongruent right correct Normal 168
18 165 LeftSmaller PercIExp Prime_9A Target_1N BaMbcfE ldgJKCb Incongruent left error Normal 164
18 166 LeftSmaller PercIExp Prime_6A Target_1N fMHLKal JaMhcFi Incongruent right correct Normal 268
18 167 LeftSmaller PercIExp Prime_6N Target_4A iemIjKf gGADCIa Incongruent right correct Normal 160
18 168 LeftSmaller PercIExp Prime_1A Target_1A baFIKlE bCfFacE Congruent left correct Normal 317
18 169 LeftSmaller PercIExp Prime_1N Target_4N chiGlAj mckhgiB Congruent right error Normal 306
18 170 LeftSmaller PercIExp Prime_6A Target_1A eMfhjDc bLIkFhi Incongruent left error Normal 395
18 171 LeftSmaller PercIExp Prime_9A Target_1A kMmlDdB djlCfhc Incongruent left error Normal 154
18 172 LeftSmaller PercIExp Prime_9N Target_6N DlABahH iGMEabD Congruent right correct Normal 222
18 173 LeftSmaller PercIExp Prime_4A Target_1N fEiMcHK eGmJhHk Congruent left correct Normal 379
18 174 LeftSmaller PercIExp Prime_9A Target_6N GJhcELk kJfDFlm Congruent right correct Normal 728
18 175 LeftSmaller PercIExp Prime_1N Target_1N IGMDdjA cBajJlb Congruent right error Normal 655
18 176 LeftSmaller PercIExp Prime_6N Target_6A GCcdaJL lhkDbMd Congruent left error Normal 341
18 177 LeftSmaller PercIExp Prime_9A Target_9A kCFDKid gDFJfel Congruent left error Normal 469
18 178 LeftSmaller PercIExp Prime_6N Target_4N dDFCAmk IjEekHB Incongruent left error Normal 407
18 179 LeftSmaller PercIExp Prime_9A Target_9N DGMABKk acdEFhI Congruent right correct Normal 343
18 180 LeftSmaller PercIExp Prime_4N Target_1N HMjmDAI eMkACah Congruent left correct Normal 447
18 181 LeftSmaller PercIExp Prime_1N Target_1A IfmiFdj clHEjAM Congruent left correct Normal 283
18 182 LeftSmaller PercIExp Prime_4A Target_4A BjiIbKG jieDfAl Congruent right error Early 92
18 183 LeftSmaller PercIExp Prime_9N Target_9N LAImbiH lbmKjgA Congruent right correct Normal 172
18 184 LeftSmaller PercIExp Prime_6A Target_4N dBCLIlJ Hkhcgal Incongruent right correct Normal 323
18 185 LeftSmaller PercIExp Prime_4N Target_6A fAFdEcJ jIkgDAL Incongruent left correct Normal 268
18 186 LeftSmaller PercIExp Prime_6N Target_9N mAGBgdM BdabflA Congruent left error Normal 276
18 187 LeftSmaller PercIExp Prime_4N Target_9A lcMKCmF JmGcjCA Incongruent left correct Normal 289
18 188 LeftSmaller PercIExp Prime_6N Target_1A efIbBmG jkbAacm Incongruent right correct Normal 204
18 189 LeftSmaller PercIExp Prime_4A Target_9N aDhHkAc iaCgejk Incongruent right error Normal 145
18 190 LeftSmaller PercIExp Prime_4A Target_1A lGkmCBf IGAMeml Congruent left correct Normal 265
18 191 LeftSmaller PercIExp Prime_1N Target_9A CikEHMa LceilhJ Incongruent right error Normal 160
18 192 LeftSmaller PercIExp Prime_4A Target_6N FkAMIlD HDBlEmL Incongruent right error Normal 279
18 193 LeftSmaller PercIExp Prime_4N Target_9N HLFAiBj LlAIhMF Incongruent left correct Normal 363
18 194 LeftSmaller PercIExp Prime_4N Target_1A CHGfkaF JHIjaAm Congruent left correct Normal 234
18 195 LeftSmaller PercIExp Prime_9N Target_9A iAMgkDK acjBmdf Congruent right correct Normal 107
18 196 LeftSmaller PercIExp Prime_4A Target_9A DmfCKIh jabCImJ Incongruent left correct Early 81
18 197 LeftSmaller PercIExp Prime_6N Target_6N KfGbhIm hKDeJbL Congruent left error Early 52
18 198 LeftSmaller PercIExp Prime_6N Target_9A mFlHhJK kHgLMDe Congruent right correct Early 55
18 199 LeftSmaller PercIExp Prime_9N Target_6A McbFADm fIbKdHC Congruent left error Normal 121
18 200 LeftSmaller PercIExp Prime_9A Target_4N cdmhaKF MeKJEFI Incongruent left error Normal 143
18 201 LeftSmaller PercIExp Prime_1A Target_4N fKCGjJI hGEmeik Congruent left correct Normal 243
18 202 LeftSmaller PercIExp Prime_6N Target_1N LkmfcAE cEICmkB Incongruent right correct Normal 168
18 203 LeftSmaller PercIExp Prime_1A Target_6A LBIhcFm JfBlDEe Incongruent right error Normal 157
18 204 LeftSmaller PercIExp Prime_4N Target_4A HMkJhDl aDCJGcF Congruent left correct Normal 158
18 205 LeftSmaller PercIExp Prime_1N Target_9N dFhiIMH aHAeIMm Incongruent left correct Early 92
18 206 LeftSmaller PercIExp Prime_9N Target_1N jelfkbG idgEhBM Incongruent left error Early 56
18 207 LeftSmaller PercIExp Prime_1N Target_6A kAHGFmi EHlAmjc Incongruent right error Early 33
18 208 LeftSmaller PercIExp Prime_9A Target_6A gLKkdcj DEiMFfJ Congruent right correct Early 71
18 209 LeftSmaller PercIExp Prime_6A Target_1A kEDIfiC hleKjiB Incongruent left error Normal 294
18 210 LeftSmaller PercIExp Prime_4A Target_6N cFCJkKE mlHfDjc Incongruent right error Normal 234
18 211 LeftSmaller PercIExp Prime_6A Target_4N lbgKFiJ aBdIAGl Incongruent right correct Normal 151
18 212 LeftSmaller PercIExp Prime_4N Target_1A eaclKgJ BIjeJLa Congruent left correct Normal 285
18 213 LeftSmaller PercIExp Prime_4A Target_1A IlBGfLH CFEMkma Congruent left correct Normal 159
18 214 LeftSmaller PercIExp Prime_9N Target_1N igcMAKl KLlcjAJ Incongruent right correct Early 80
18 215 LeftSmaller PercIExp Prime_6N Target_6A iAldJLB eLMdlCB Congruent right correct Early 37
18 216 LeftSmaller PercIExp Prime_1A Target_1N EmlchFa gKMjaLI Congruent right error Early 40
18 217 LeftSmaller PercIExp Prime_4N Target_1N dgMefLa fKHeELB Congruent left correct Early 83
18 218 LeftSmaller PercIExp Prime_1A Target_6A ifMJKcj bLgmkfA Incongruent left correct Normal 167
18 219 LeftSmaller PercIExp Prime_6N Target_9N FHmbLfh cfbhaGK Congruent left error Normal 143
18 220 LeftSmaller PercIExp Prime_4A Target_9A aLAkGmI EbDKIiA Incongruent right error Early 38
18 221 LeftSmaller PercIExp Prime_9N Target_4A ikeBbFM aHlKFDh Incongruent right correct Early 36
18 222 LeftSmaller PercIExp Prime_1A Target_9N EMGmjfD hDGLeJC Incongruent right error Early 38
18 223 LeftSmaller PercIExp Prime_1N Target_1N GBfkeFE FgMEefG Congruent left correct Early 90
18 224 LeftSmaller PercIExp Prime_1N Target_6N AHbegCE GFhfmbC Incongruent left correct Normal 165
18 225 LeftSmaller PercIExp Prime_6A Target_9A KaldjmC kmGMdKe Congruent left error Early 15
18 226 LeftSmaller PercIExp Prime_9A Target_6N MJGfbKd fbjCdAB Congruent right correct Early 79
18 227 LeftSmaller PercIExp Prime_4N Target_4A IMHhDFL EiCadbl Congruent right error Early 47
18 228 LeftSmaller PercIExp Prime_4N Target_6A DkAlifj eJlfChd Incongruent right error Early 99
18 229 LeftSmaller PercIExp Prime_6N Target_9A IcaKeLG leELfdI Congruent left error Early 52
18 230 LeftSmaller PercIExp Prime_1A Target_1A jHbLckd JFiKehj Congruent left correct Early 42
18 231 LeftSmaller PercIExp Prime_9A Target_6A BhFMHGi FeDLgmK Congruent right correct Early 36
18 232 LeftSmaller PercIExp Prime_6A Target_4A ieIhfHa FGIAELM Incongruent right correct Early 10
18 233 LeftSmaller PercIExp Prime_6A Target_1N JbAHacF IkDBmJM Incongruent left error Early 13
18 234 LeftSmaller PercIExp Prime_9A Target_1A gbGacdj DGMebEH Incongruent left error Normal 482
18 235 LeftSmaller PercIExp Prime_9A Target_4A CFIJkLG hAjCdkI Incongruent left error Normal 270
18 236 LeftSmaller PercIExp Prime_9N Target_9A bEdikFM egEicLB Congruent right correct Normal 260
18 237 LeftSmaller PercIExp Prime_6A Target_6A ebKFjHD KbIJMel Congruent right correct Normal 501
18 238 LeftSmaller PercIExp Prime_6N Target_6N CKDJFME IGLFDef Congruent right correct Early 7
18 239 LeftSmaller PercIExp Prime_4N Target_9N DblfLEM EdFIbaf Incongruent left correct Early 88
18 240 LeftSmaller PercIExp Prime_4A Target_4A FhMmgKI eKEkhlf Congruent left correct Early 27
18 241 LeftSmaller PercIExp Prime_6A Target_6N IekjMEc FiGdCek Congruent left error Early 47
18 242 LeftSmaller PercIExp Prime_9N Target_9N aDKgAFG cMldADG Congruent left error Normal 174
18 243 LeftSmaller PercIExp Prime_4A Target_4N LbAIcMK aMCkEhj Congruent right error Normal 137
18 244 LeftSmaller PercIExp Prime_6A Target_9N mFLMdcG hcjfKIB Congruent right correct Early 31
18 245 LeftSmaller PercIExp Prime_9A Target_1N kLFMBlK cIdAiBa Incongruent right correct Early 44
18 246 LeftSmaller PercIExp Prime_1A Target_4N lgFjhHM AFklfcJ Congruent left correct Early 22
18 247 LeftSmaller PercIExp Prime_1N Target_9A AkCEdGm CgeJHMG Incongruent right error Normal 125
18 248 LeftSmaller PercIExp Prime_1N Target_6A aKImGEg lLBMhib Incongruent right error Late 43690
18 249 LeftSmaller PercIExp Prime_1N Target_4N BhdaDlK bmIGJik Congruent left correct Late 24185
18 250 LeftSmaller PercIExp Prime_1A Target_4A LhAeMki cdgblLE Congruent left correct Normal 182
18 251 LeftSmaller PercIExp Prime_4N Target_6N GbBkeiF iDAIFeL Incongruent right error Normal 412
18 252 LeftSmaller PercIExp Prime_9A Target_4N MDcGbAC cDKAmgh Incongruent right correct Normal 182
18 253 LeftSmaller PercIExp Prime_1N Target_9N CcebAHD dalAJFc Incongruent right error Normal 126
18 254 LeftSmaller PercIExp Prime_1A Target_9A kBfgaHM LlEgdjk Incongruent left correct Normal 149
18 255 LeftSmaller PercIExp Prime_6N Target_4N lkMFcmC BEcfhek Incongruent left error Early 36
18 256 LeftSmaller PercIExp Prime_9A Target_9A cAhjiMl eIfCAcm Congruent right correct Normal 217
18 257 LeftSmaller PercIExp Prime_9N Target_1A BeEHkCI dfALCml Incongruent right correct Normal 167
18 258 LeftSmaller PercIExp Prime_1N Target_4A eKkLbiB kFlfcHi Congruent right error Normal 133
18 259 LeftSmaller PercIExp Prime_1N Target_1A hEiCGDM ibalkLC Congruent left correct Early 54
18 260 LeftSmaller PercIExp Prime_9N Target_6N ciEfImJ MkifmJG Congruent left error Early 34
18 261 LeftSmaller PercIExp Prime_4A Target_9N dmcbifD HMdKIfb Incongruent left correct Early 23
18 262 LeftSmaller PercIExp Prime_9N Target_4N abdJDIL aHlkIiM Incongruent left error Early 65
18 263 LeftSmaller PercIExp Prime_4A Target_1N gDamJAF gKmFGLa Congruent right error Normal 230
18 264 LeftSmaller PercIExp Prime_9A Target_9N LJFDeBg AilEbIa Congruent right correct Normal 126
18 265 LeftSmaller PercIExp Prime_4N Target_4N KkCDMAg FAGhEme Congruent left correct Normal 122
18 266 LeftSmaller PercIExp Prime_1A Target_6N mdiJcIA GgCjKkf Incongruent left correct Early 77
18 267 LeftSmaller PercIExp Prime_9N Target_6A FaGAMIk BjMHDhE Congruent right correct Normal 202
18 268 LeftSmaller PercIExp Prime_4A Target_6A jdKcaeb bDgleLa Incongruent right error Normal 146
18 269 LeftSmaller PercIExp Prime_6N Target_4A AjCfcgG CgHJGID Incongruent left error Early 92
18 270 LeftSmaller PercIExp Prime_6N Target_1A chfCdFk CmejKaM Incongruent right correct Normal 111
18 271 LeftSmaller PercIExp Prime_6N Target_1N JaGALcF LKgJkIG Incongruent right correct Early 80
18 272 LeftSmaller PercIExp Prime_4N Target_9A IclAmkb HAKJFkL Incongruent left correct Normal 136
19 17 LeftSmaller PercIExp Prime_1A Target_6A hjDkGgl BbmgEdM Incongruent left correct Normal 838
19 18 LeftSmaller PercIExp Prime_1N Target_6N LHfcKde FgGHEfc Incongruent left correct Normal 2184
19 19 LeftSmaller PercIExp Prime_1N Target_9N FACMlID HbMiAha Incongruent left correct Normal 1980
19 20 LeftSmaller PercIExp Prime_9A Target_4A gMdGAmc aKBjbCJ Incongruent right correct Normal 797
19 21 LeftSmaller PercIExp Prime_6N Target_1A HMFKeLI gGkhFHE Incongruent right correct Normal 1210
19 22 LeftSmaller PercIExp Prime_1A Target_4A McgLEbA iLcFkCG Congruent right error Normal 1416
19 23 LeftSmaller PercIExp Prime_4A Target_4N gMeCAlb ilMKbBg Congruent left correct Normal 1371
19 24 LeftSmaller PercIExp Prime_4N Target_9A MbKBjia ebicBka Incongruent right error Normal 547
19 25 LeftSmaller PercIExp Prime_1A Target_1A ImeJKcB fjLBcbe Congruent left correct Normal 1374
19 26 LeftSmaller PercIExp Prime_9N Target_1N lCMEbaB LfFleBE Incongruent left error Normal 1289
19 27 LeftSmaller PercIExp Prime_9N Target_4N fHagBKF lFIKhJj Incongruent left error Normal 1911
19 28 LeftSmaller PercIExp Prime_6N Target_4N jbBEIaK EMbGBFd Incongruent right correct Normal 1265
19 29 LeftSmaller PercIExp Prime_9A Target_9N fHGDCdm dkfcMEi Congruent right correct Normal 1001
19 30 LeftSmaller PercIExp Prime_6A Target_6A KjemFAc HAmfeiJ Congruent right correct Normal 2153
19 31 LeftSmaller PercIExp Prime_6A Target_9N flGmkAd MjbhelF Congruent left error Normal 1166
19 32 LeftSmaller PercIExp Prime_9A Target_1N HDMGefI jMFgedm Incongruent right correct Normal 2179
19 33 LeftSmaller PercIExp Prime_1A Target_4N lkMGCaJ CmBHDAf Congruent right error Normal 1037
19 34 LeftSmaller PercIExp Prime_9A Target_4N klBfAie LfGFceJ Incongruent left error Normal 709
19 35 LeftSmaller PercIExp Prime_9A Target_1A EJaBIkH EgfDkml Incongruent right correct Normal 1840
19 36 LeftSmaller PercIExp Prime_9N Target_9A LmlIeMJ jmBAcKg Congruent right correct Normal 2057
19 37 LeftSmaller PercIExp Prime_4N Target_4A CiEmAlB JedjMfE Congruent right error Normal 1548
19 38 LeftSmaller PercIExp Prime_4A Target_6A jbhkAim gBMfaIi Incongruent right error Normal 1068
19 39 LeftSmaller PercIExp Prime_4A Target_9N jDKJIlh CKeBlEg Incongruent left correct Normal 799
19 40 LeftSmaller PercIExp Prime_4N Target_6N ICdEfMc DlKdgha Incongruent right error Normal 2026
19 41 LeftSmaller PercIExp Prime_6A Target_1N giAHbIj jAmJlIE Incongruent left error Normal 1025
19 42 LeftSmaller PercIExp Prime_9N Target_6N jAldGmg HiMbJKa Congruent right correct Normal 711
19 43 LeftSmaller PercIExp Prime_6A Target_1A LhlMEkG hBigefE Incongruent right correct Normal 844
19 44 LeftSmaller PercIExp Prime_6A Target_6N KkiajgM KbafIFH Congruent left error Normal 1290
19 45 LeftSmaller PercIExp Prime_6N Target_1N dEcAICK cAdmIfh Incongruent right correct Normal 1677
19 46 LeftSmaller PercIExp Prime_4A Target_6N bLgHDMm mKhJaIg Incongruent right error Normal 989
19 47 LeftSmaller PercIExp Prime_1N Target_1N CfdhFKJ JkajIcd Congruent right error Normal 1341
19 48 LeftSmaller PercIExp Prime_1N Target_9A FlKgCIB bCMajdi Incongruent left correct Normal 1502
19 49 LeftSmaller PercIExp Prime_9N Target_9N MbiAlBC ECMFhga Congruent left error Normal 846
19 50 LeftSmaller PercIExp Prime_9N Target_6A gjFJACB jlBGFdC Congruent left error Normal 751
19 51 LeftSmaller PercIExp Prime_1A Target_9A ikBgJEH BhgFlkD Incongruent right error Normal 886
19 52 LeftSmaller PercIExp Prime_6A Target_4N hKFADIG CalkgDK Incongruent right correct Normal 1435
19 53 LeftSmaller PercIExp Prime_4A Target_9A cKialkA aifBcDe Incongruent left correct Normal 1168
19 54 LeftSmaller PercIExp Prime_1N Target_4N GgbjhiL ABKmaEJ Congruent left correct Normal 801
19 55 LeftSmaller PercIExp Prime_6N Target_6A BbKMlgI bgHdfLj Congruent left error Normal 3280
19 56 LeftSmaller PercIExp Prime_4N Target_6A EheGfdk FBeEAKj Incongruent right error Normal 677
19 57 LeftSmaller PercIExp Prime_4N Target_4N DmdMjkF jbEcAfH Congruent right error Normal 789
19 58 LeftSmaller PercIExp Prime_4N Target_9N cbKdFJG lBAKhHf Incongruent right error Normal 2287
19 59 LeftSmaller PercIExp Prime_6N Target_9A faGjFKg DjheEIJ Congruent left error Normal 835
19 60 LeftSmaller PercIExp Prime_6N Target_9N FGmkDea eKEBlCG Congruent left error Normal 501
19 61 LeftSmaller PercIExp Prime_1N Target_1A JjGHmBc cEBFIbl Congruent right error Normal 662
19 62 LeftSmaller PercIExp Prime_4A Target_1A AJBalcD igCbjDh Congruent left correct Normal 641
19 63 LeftSmaller PercIExp Prime_9N Target_1A KbEalHf laeAgMj Incongruent right correct Normal 937
19 64 LeftSmaller PercIExp Prime_6N Target_6N HJlbGfE kcaCdfK Congruent left error Normal 1375
19 65 LeftSmaller PercIExp Prime_6N Target_4A mILegha ImKhDiF Incongruent right correct Normal 1547
19 66 LeftSmaller PercIExp Prime_4A Target_4A BAMJlIF MmaAIDk Congruent left correct Normal 735
19 67 LeftSmaller PercIExp Prime_1N Target_6A AikEjHJ CeKFjhL Incongruent right error Normal 2084
19 68 LeftSmaller PercIExp Prime_9N Target_4A HehaKCb LGgKMml Incongruent right correct Normal 1645
19 69 LeftSmaller PercIExp Prime_1A Target_6N GHIljhf FHcAmkg Incongruent left correct Normal 1419
19 70 LeftSmaller PercIExp Prime_1N Target_4A LBgjmaG AaDjdeC Congruent left correct Normal 858
19 71 LeftSmaller PercIExp Prime_1A Target_9N hJmMkgf kLmMcBI Incongruent right error Normal 871
19 72 LeftSmaller PercIExp Prime_4A Target_1N djfemLb hKIcMlj Congruent right error Normal 2028
19 73 LeftSmaller PercIExp Prime_9A Target_6A lIdHKDm EklFdcH Congruent left error Normal 1416
19 74 LeftSmaller PercIExp Prime_9A Target_9A BAmdbEL aDCAGeh Congruent left error Normal 2812
19 75 LeftSmaller PercIExp Prime_9A Target_6N IgMhJEH DdlkbMF Congruent left error Normal 1031
19 76 LeftSmaller PercIExp Prime_4N Target_1A gDAfkKc CMFBhdE Congruent left correct Normal 1103
19 77 LeftSmaller PercIExp Prime_1A Target_1N mLcdaIl ilDhcBk Congruent right error Normal 642
19 78 LeftSmaller PercIExp Prime_6A Target_9A KMflbaE GBibJFm Congruent right correct Normal 746
19 79 LeftSmaller PercIExp Prime_4N Target_1N HADdcFE eCmidDh Congruent right error Normal 1062
19 80 LeftSmaller PercIExp Prime_6A Target_4A hHkcAjd gGjbKDB Incongruent right correct Normal 618
19 81 LeftSmaller PercIExp Prime_9N Target_9N lkKfMDL EIkABgF Congruent left error Normal 851
19 82 LeftSmaller PercIExp Prime_1A Target_9N bJdIchi KLhiFbc Incongruent right error Normal 357
19 83 LeftSmaller PercIExp Prime_1A Target_4A EbcCalD BKcDFkl Congruent right error Normal 992
19 84 LeftSmaller PercIExp Prime_4A Target_6A bJIfhCl mFbjJfi Incongruent right error Normal 799
19 85 LeftSmaller PercIExp Prime_1A Target_6A idECmlb LglkbMB Incongruent left correct Normal 1593
19 86 LeftSmaller PercIExp Prime_1N Target_6N eCHBgih cfCMdlD Incongruent right error Normal 1235
19 87 LeftSmaller PercIExp Prime_4N Target_4A BkGLEfe FdDbAmG Congruent right error Normal 1709
19 88 LeftSmaller PercIExp Prime_6N Target_6A dDIjFlJ DGjmaEg Congruent right correct Normal 1263
19 89 LeftSmaller PercIExp Prime_1N Target_4A DFkmLGg IfckmKM Congruent left correct Normal 680
19 90 LeftSmaller PercIExp Prime_6N Target_4A MJiFbdc gDdAfHB Incongruent right correct Normal 948
19 91 LeftSmaller PercIExp Prime_9N Target_6N iKfLcDG dEiIHAJ Congruent right correct Normal 1945
19 92 LeftSmaller PercIExp Prime_9N Target_6A flFkAme dAKIhGB Congruent right correct Normal 1150
19 93 LeftSmaller PercIExp Prime_4N Target_9N DGKaeIE MCDLFBm Incongruent left correct Normal 804
19 94 LeftSmaller PercIExp Prime_6N Target_6N aBiEJlH LgCabAc Congruent right correct Normal 946
19 95 LeftSmaller PercIExp Prime_9N Target_1N KcBHdif ejGfmdM Incongruent right correct Normal 1592
19 96 LeftSmaller PercIExp Prime_4N Target_6N iHeEDkj lIhmfKH Incongruent right error Normal 1998
19 97 LeftSmaller PercIExp Prime_6A Target_4A IbjaMhc ECfJjLK Incongruent left error Normal 2097
19 98 LeftSmaller PercIExp Prime_6A Target_9N GAaEiID DFBKejC Congruent right correct Normal 1070
19 99 LeftSmaller PercIExp Prime_6A Target_1A MkAdDLI FghGcMB Incongruent right correct Normal 1467
19 100 LeftSmaller PercIExp Prime_4A Target_1N aMcEDGg MmCfBed Congruent left correct Normal 698
19 101 LeftSmaller PercIExp Prime_4N Target_9A fMBLklI hejbEaD Incongruent right error Normal 983
19 102 LeftSmaller PercIExp Prime_6A Target_6A LcIEmGA aELAfmK Congruent right correct Normal 891
19 103 LeftSmaller PercIExp Prime_4A Target_6N FJCLgmI lifHKBM Incongruent right error Normal 2975
19 104 LeftSmaller PercIExp Prime_1A Target_4N adFMfhg EdDbLBl Congruent right error Normal 1791
19 105 LeftSmaller PercIExp Prime_6N Target_1A FCjaEAM eBHImlh Incongruent left error Normal 1032
19 106 LeftSmaller PercIExp Prime_1A Target_6N BDbciCJ JcLDBaA Incongruent left correct Normal 746
19 107 LeftSmaller PercIExp Prime_9A Target_9A idhkAeF IBgAalf Congruent right correct Normal 912
19 108 LeftSmaller PercIExp Prime_6A Target_1N GMielJB fhCkcAI Incongruent left error Normal 2292
19 109 LeftSmaller PercIExp Prime_9N Target_4A fJeDaCb lebkaKE Incongruent right correct Normal 1005
19 110 LeftSmaller PercIExp Prime_6A Target_4N eAIHkLK CIaegMh Incongruent right correct Normal 885
19 111 LeftSmaller PercIExp Prime_4A Target_4N EfgeBmJ cjkElfm Congruent right error Normal 859
19 112 LeftSmaller PercIExp Prime_6A Target_9A BlaCeDI gDAbaMH Congruent left error Normal 1665
19 113 LeftSmaller PercIExp Prime_1N Target_1N ajDmFBe cFiJkIM Congruent right error Normal 1642
19 114 LeftSmaller PercIExp Prime_9A Target_1N dMeaAck IaBiJhK Incongruent left error Normal 1149
19 115 LeftSmaller PercIExp Prime_1A Target_1A mCFAfel McjKAgL Congruent right error Normal 843
19 116 LeftSmaller PercIExp Prime_9A Target_9N CLdDMbF FlBaKfG Congruent left error Normal 1895
19 117 LeftSmaller PercIExp Prime_1A Target_1N kHeFBKl dJHMfKh Congruent right error Normal 1705
19 118 LeftSmaller PercIExp Prime_1N Target_1A fAdHmIB eagIHJj Congruent left correct Normal 815
19 119 LeftSmaller PercIExp Prime_4N Target_1N AHibJFk EFbfCcG Congruent right error Normal 1075
19 120 LeftSmaller PercIExp Prime_1N Target_6A HjeIJAG FdGMfJj Incongruent right error Normal 866
19 121 LeftSmaller PercIExp Prime_6N Target_9N BcbEHKM mbaFLJg Congruent right correct Normal 2240
19 122 LeftSmaller PercIExp Prime_1N Target_9N KBIlCid cakeghH Incongruent left correct Normal 909
19 123 LeftSmaller PercIExp Prime_4N Target_6A AbFHEda DHmKlaA Incongruent right error Normal 1008
19 124 LeftSmaller PercIExp Prime_4N Target_4N kbGBaAM FBmLbcl Congruent left correct Normal 956
19 125 LeftSmaller PercIExp Prime_4A Target_1A klbFajD GliCbcH Congruent right error Normal 878
19 126 LeftSmaller PercIExp Prime_9A Target_4N DEMBCAk GhkmDgF Incongruent right correct Normal 885
19 127 LeftSmaller PercIExp Prime_9N Target_1A LKcBJda LJMDlgc Incongruent right correct Normal 1079
19 128 LeftSmaller PercIExp Prime_9N Target_4N EHjGfID jMimgBk Incongruent left error Normal 851
19 129 LeftSmaller PercIExp Prime_4A Target_4A caBHIeL hfIbDBi Congruent right error Normal 1284
19 130 LeftSmaller PercIExp Prime_4A Target_9N BEIdaFM IfmDiFl Incongruent right error Normal 1709
19 131 LeftSmaller PercIExp Prime_4N Target_1A JAGFlaB deAIFLD Congruent right error Normal 1126
19 132 LeftSmaller PercIExp Prime_1N Target_4N gJHDGIM aheimDA Congruent left correct Normal 798
19 133 LeftSmaller PercIExp Prime_9A Target_6N gJmCEDe eAELbKi Congruent right correct Normal 819
19 134 LeftSmaller PercIExp Prime_9A Target_6A FcBgkJj cdeCAgL Congruent right correct Normal 1120
19 135 LeftSmaller PercIExp Prime_6N Target_1N HILhgli iMLdDGa Incongruent right correct Normal 1496
19 136 LeftSmaller PercIExp Prime_6A Target_6N bdcajLi MjEmlgH Congruent left error Normal 1473
19 137 LeftSmaller PercIExp Prime_1N Target_9A dDLhBAM laHhiAd Incongruent right error Normal 956
19 138 LeftSmaller PercIExp Prime_1A Target_9A DHCGbic iCbdEDL Incongruent right error Normal 1581
19 139 LeftSmaller PercIExp Prime_9N Target_9A CaHkhdl HMkIcgl Congruent left error Normal 837
19 140 LeftSmaller PercIExp Prime_9A Target_1A dgGJIBD gJElHMC Incongruent right correct Normal 903
19 141 LeftSmaller PercIExp Prime_6N Target_4N GeCEBjF KGIMJAB Incongruent left error Normal 854
19 142 LeftSmaller PercIExp Prime_4A Target_9A LcIlbCd KdMGjhl Incongruent right error Normal 608
19 143 LeftSmaller PercIExp Prime_9A Target_4A KkIJifg IHhDjKi Incongruent right correct Normal 760
19 144 LeftSmaller PercIExp Prime_6N Target_9A iGHljhC aGKiAgd Congruent right correct Normal 1389
19 145 LeftSmaller PercIExp Prime_4N Target_4N DBAhelm BKbHhka Congruent left correct Normal 1101
19 146 LeftSmaller PercIExp Prime_6N Target_9A eGjDIha DAcbdlh Congruent right correct Normal 797
19 147 LeftSmaller PercIExp Prime_9N Target_4A eGBLhCc CMeigmK Incongruent right correct Normal 948
19 148 LeftSmaller PercIExp Prime_9A Target_1A fdGKIkg AEDiHGb Incongruent left error Normal 1404
19 149 LeftSmaller PercIExp Prime_9N Target_9N aIgCGec EcdjgAB Congruent left error Normal 2338
19 150 LeftSmaller PercIExp Prime_6N Target_6A KhMdkBG FBfhcab Congruent right correct Normal 718
19 151 LeftSmaller PercIExp Prime_4N Target_1N HFkagiK EhgfcIK Congruent right error Normal 855
19 152 LeftSmaller PercIExp Prime_1N Target_6A kKEFcAH KAcDEeg Incongruent left correct Normal 562
19 153 LeftSmaller PercIExp Prime_6A Target_9N LJDgcfA bDhAEcM Congruent right correct Normal 1273
19 154 LeftSmaller PercIExp Prime_1A Target_1A EgCiDmA MCKamIb Congruent right error Normal 645
19 155 LeftSmaller PercIExp Prime_6A Target_1N FEAHmLB mElCFkA Incongruent right correct Normal 2407
19 156 LeftSmaller PercIExp Prime_1A Target_9N AbefiEl mbIiKld Incongruent right error Normal 807
19 157 LeftSmaller PercIExp Prime_6A Target_6A cIfjFaB DBhaIAd Congruent right correct Normal 800
19 158 LeftSmaller PercIExp Prime_4A Target_6A JLahGdg HJLfMcD Incongruent right error Normal 1411
19 159 LeftSmaller PercIExp Prime_9N Target_6N KcemBdG lKcibGe Congruent right correct Normal 1549
19 160 LeftSmaller PercIExp Prime_1N Target_1N AeKgHcF dfGCjcm Congruent left correct Normal 960
19 161 LeftSmaller PercIExp Prime_9A Target_9N JijdGFA jmliaGb Congruent right correct Normal 641
19 162 LeftSmaller PercIExp Prime_4N Target_9N hDFijAm MBhjbad Incongruent left correct Normal 772
19 163 LeftSmaller PercIExp Prime_6N Target_4A kCLAhHB AJIHhMc Incongruent left error Normal 844
19 164 LeftSmaller PercIExp Prime_1N Target_6N DECkdbl mEMflKc Incongruent right error Normal 2848
19 165 LeftSmaller PercIExp Prime_4N Target_1A dHLCgea FIfCBiM Congruent left correct Normal 572
19 166 LeftSmaller PercIExp Prime_4A Target_9A dClHaec CdeabBD Incongruent left correct Normal 495
19 167 LeftSmaller PercIExp Prime_4N Target_4A JMEmilI HdlgamA Congruent left correct Normal 910
19 168 LeftSmaller PercIExp Prime_9A Target_4A Iclhied KHGmLCa Incongruent left error Normal 778
19 169 LeftSmaller PercIExp Prime_1A Target_6N jHGMdIB gLHfibK Incongruent left correct Normal 1524
19 170 LeftSmaller PercIExp Prime_9N Target_4N ekaEiFh ehgCFjm Incongruent right correct Normal 948
19 171 LeftSmaller PercIExp Prime_6A Target_4A egLcKFB LJdKeDl Incongruent right correct Normal 590
19 172 LeftSmaller PercIExp Prime_9A Target_6A clbefHi mkHMJdF Congruent right correct Normal 798
19 173 LeftSmaller PercIExp Prime_1A Target_4A cBbekjl BDICKle Congruent left correct Normal 1586
19 174 LeftSmaller PercIExp Prime_6N Target_1N BaiCjeE bJlhcfK Incongruent right correct Normal 736
19 175 LeftSmaller PercIExp Prime_1N Target_9A mkIHMig aidGBIc Incongruent left correct Normal 610
19 176 LeftSmaller PercIExp Prime_1A Target_1N iabglIc BmKgCGJ Congruent right error Normal 239
19 177 LeftSmaller PercIExp Prime_9N Target_1A AemCIDg eDKEfaM Incongruent right correct Normal 1178
19 178 LeftSmaller PercIExp Prime_9A Target_1N AaKkhLc GbBIEmK Incongruent right correct Late 9595
19 179 LeftSmaller PercIExp Prime_6A Target_9A JhgdlbF BgFHhde Congruent right correct Normal 649
19 180 LeftSmaller PercIExp Prime_4A Target_4A ciKMjGI LhaGKfi Congruent right error Normal 1592
19 181 LeftSmaller PercIExp Prime_9A Target_4N hbgefFJ bAaCjig Incongruent left error Normal 1640
19 182 LeftSmaller PercIExp Prime_6N Target_1A CbjIfAF GhbmDMj Incongruent right correct Normal 1157
19 183 LeftSmaller PercIExp Prime_4A Target_1N gLbKFcA efikKgj Congruent right error Normal 557
19 184 LeftSmaller PercIExp Prime_1A Target_4N CJBFHML MFlIEdm Congruent left correct Normal 803
19 185 LeftSmaller PercIExp Prime_9A Target_9A jGbcghe mJcbIdC Congruent right correct Normal 873
19 186 LeftSmaller PercIExp Prime_9N Target_1N CgdIHik lGBIDkF Incongruent left error Normal 725
19 187 LeftSmaller PercIExp Prime_6A Target_1A EmMHJDe AcCelMF Incongruent left error Normal 560
19 188 LeftSmaller PercIExp Prime_6N Target_6N kKAHcMB fHBjabm Congruent right correct Normal 1759
19 189 LeftSmaller PercIExp Prime_1N Target_4N mjfGLHD KHBJfld Congruent right error Normal 479
19 190 LeftSmaller PercIExp Prime_1N Target_4A HDjaFJG bDaMFej Congruent left correct Normal 515
19 191 LeftSmaller PercIExp Prime_4A Target_9N GmgKIJd GEkalDH Incongruent right error Normal 875
19 192 LeftSmaller PercIExp Prime_6N Target_9N cglmIhK IdEBlcF Congruent left error Normal 532
19 193 LeftSmaller PercIExp Prime_6A Target_4N FEkeJaK iDBbAHh Incongruent right correct Normal 737
19 194 LeftSmaller PercIExp Prime_4N Target_9A McfLkKg HAfmMIb Incongruent right error Normal 1171
19 195 LeftSmaller PercIExp Prime_4A Target_6N EfLmHie LCGFfDa Incongruent right error Normal 525
19 196 LeftSmaller PercIExp Prime_4N Target_6A fJmEjaC gJcjMAa Incongruent right error Normal 901
19 197 LeftSmaller PercIExp Prime_1A Target_9A fmgDkEd ickJeHM Incongruent left correct Normal 1177
19 198 LeftSmaller PercIExp Prime_6N Target_4N FhABGEH eaCIcDK Incongruent left error Normal 717
19 199 LeftSmaller PercIExp Prime_9A Target_6N kjALadG KAFmjGh Congruent right correct Normal 196
19 200 LeftSmaller PercIExp Prime_9N Target_9A hMcjfJk CMAHgJF Congruent left error Normal 389
19 201 LeftSmaller PercIExp Prime_4A Target_4N bfDLhmd jHBMDag Congruent right error Early 66
19 202 LeftSmaller PercIExp Prime_1N Target_9N cjDBdAC ImGKAcB Incongruent right error Normal 1143
19 203 LeftSmaller PercIExp Prime_1A Target_6A EhmIcjk acGEMeb Incongruent left correct Normal 1274
19 204 LeftSmaller PercIExp Prime_6A Target_6N gLKjmhB hGgeAEI Congruent right correct Normal 996
19 205 LeftSmaller PercIExp Prime_1N Target_1A IfkHeiD EIMlGKF Congruent left correct Normal 860
19 206 LeftSmaller PercIExp Prime_4N Target_6N CFfcLgI AfcGjkH Incongruent left correct Normal 1682
19 207 LeftSmaller PercIExp Prime_9N Target_6A JicDedg LFlJakE Congruent right correct Normal 1089
19 208 LeftSmaller PercIExp Prime_4A Target_1A bGdEhKj CkDHJBG Congruent left correct Normal 1171
19 209 LeftSmaller PercIExp Prime_1N Target_1N hmgIjeE KMfGELB Congruent right error Normal 794
19 210 LeftSmaller PercIExp Prime_4A Target_1N aBHADEc LFhEKJf Congruent left correct Normal 586
19 211 LeftSmaller PercIExp Prime_4N Target_6A ifABEhH jhLDJEm Incongruent right error Normal 909
19 212 LeftSmaller PercIExp Prime_9N Target_4N EClFjgJ khjDgEb Incongruent right correct Normal 919
19 213 LeftSmaller PercIExp Prime_6N Target_9N CMFDGed MhDdAFH Congruent left error Normal 3006
19 214 LeftSmaller PercIExp Prime_1N Target_4A kMBLcdH eaGkbDc Congruent right error Normal 596
19 215 LeftSmaller PercIExp Prime_9N Target_1N aDilcLA dgamjHM Incongruent right correct Normal 1366
19 216 LeftSmaller PercIExp Prime_6N Target_1A AadEKjm AiFDLkI Incongruent left error Normal 791
19 217 LeftSmaller PercIExp Prime_6A Target_1A clGhHDF bcCeFjE Incongruent left error Normal 629
19 218 LeftSmaller PercIExp Prime_9A Target_6A EAbaGkB HEkbLgJ Congruent right correct Normal 1017
19 219 LeftSmaller PercIExp Prime_1A Target_6N jLmdCIc BLjeaEH Incongruent left correct Normal 739
19 220 LeftSmaller PercIExp Prime_6N Target_1N DAiKJGe lLBJGbm Incongruent left error Normal 817
19 221 LeftSmaller PercIExp Prime_6A Target_6A KeAiGCf lAdLKCF Congruent left error Normal 781
19 222 LeftSmaller PercIExp Prime_6A Target_4N KgJAGda cAeIDka Incongruent right correct Normal 1770
19 223 LeftSmaller PercIExp Prime_9N Target_9N IbdFAEm GIElJfk Congruent left error Normal 774
19 224 LeftSmaller PercIExp Prime_6A Target_9A LmdgIGC bdDCalf Congruent right correct Normal 968
19 225 LeftSmaller PercIExp Prime_9N Target_9A abljHGD fKbljaG Congruent right correct Late 10497
19 226 LeftSmaller PercIExp Prime_9A Target_9N HALBJFa gJABdlG Congruent right correct Normal 656
19 227 LeftSmaller PercIExp Prime_1N Target_1A flchILe CGEimIa Congruent left correct Normal 586
19 228 LeftSmaller PercIExp Prime_6A Target_1N CHAdkml cIbiACm Incongruent left error Normal 948
19 229 LeftSmaller PercIExp Prime_4A Target_4N CDmABbj hfIHJEM Congruent right error Normal 1046
19 230 LeftSmaller PercIExp Prime_6N Target_4A ELdGkCh kKALFjm Incongruent right correct Normal 910
19 231 LeftSmaller PercIExp Prime_4N Target_4N dJIFEfa edbFkAK Congruent left correct Normal 652
19 232 LeftSmaller PercIExp Prime_6N Target_4N fiJekjc aEHgIkD Incongruent right correct Normal 1188
19 233 LeftSmaller PercIExp Prime_6N Target_6N fHGJgbC ImEMAlg Congruent right correct Normal 558
19 234 LeftSmaller PercIExp Prime_4N Target_4A kJHFMdf geLDald Congruent left correct Normal 988
19 235 LeftSmaller PercIExp Prime_4N Target_6N JaELkfB gbhDIjl Incongruent right error Normal 774
19 236 LeftSmaller PercIExp Prime_1N Target_4N LCfkJBc HdhLmaj Congruent right error Normal 829
19 237 LeftSmaller PercIExp Prime_9A Target_1N Ejedafk GmfBIHK Incongruent left error Normal 851
19 238 LeftSmaller PercIExp Prime_9N Target_6A DFKmciJ lGchmei Congruent right correct Normal 1396
19 239 LeftSmaller PercIExp Prime_1A Target_1N ICMKhFB bKhDCji Congruent right error Normal 976
19 240 LeftSmaller PercIExp Prime_4N Target_9N gGALHEB feAEkmJ Incongruent left correct Normal 561
19 241 LeftSmaller PercIExp Prime_9N Target_1A FedlfLm FjLiEdA Incongruent left error Normal 593
19 242 LeftSmaller PercIExp Prime_1A Target_4N EIhGCHm KfhIaBl Congruent right error Normal 551
19 243 LeftSmaller PercIExp Prime_4N Target_9A LElbBCi JbelhIa Incongruent right error Normal 885
19 244 LeftSmaller PercIExp Prime_1N Target_9A EFjMfmC ChjMdfa Incongruent left correct Normal 538
19 245 LeftSmaller PercIExp Prime_6A Target_9N LKmCkHc DClkhMJ Congruent right correct Normal 1105
19 246 LeftSmaller PercIExp Prime_1N Target_6A ciaLIdj AgcDFLd Incongruent right error Normal 1250
19 247 LeftSmaller PercIExp Prime_4A Target_9A IkDfGHb jlmHMBf Incongruent left correct Normal 1378
19 248 LeftSmaller PercIExp Prime_9A Target_4A iMKIAjh gECHMac Incongruent right correct Normal 1390
19 249 LeftSmaller PercIExp Prime_9A Target_4N HGfIeAg JMmiBlg Incongruent right correct Normal 1443
19 250 LeftSmaller PercIExp Prime_4N Target_1A EgfICBl cDigHba Congruent right error Normal 1203
19 251 LeftSmaller PercIExp Prime_9N Target_4A MlbmIGJ lFgCmEI Incongruent right correct Normal 942
19 252 LeftSmaller PercIExp Prime_4A Target_6N HjKDhlI lHIacfJ Incongruent left correct Normal 913
19 253 LeftSmaller PercIExp Prime_6A Target_6N JBkKlGH LlGfBCF Congruent right correct Normal 743
19 254 LeftSmaller PercIExp Prime_1A Target_1A heDiMEH iKJIaDF Congruent right error Normal 2003
19 255 LeftSmaller PercIExp Prime_4A Target_1A fhbKlAD MHAkciK Congruent right error Normal 820
19 256 LeftSmaller PercIExp Prime_9A Target_9A CjdgMbE aCmKLBe Congruent left error Normal 1030
19 257 LeftSmaller PercIExp Prime_1A Target_6A ilMHLDf DAFdMkj Incongruent right error Normal 3455
19 258 LeftSmaller PercIExp Prime_9A Target_1A chjfHIC gEmLajd Incongruent left error Normal 1979
19 259 LeftSmaller PercIExp Prime_9A Target_6N KFAjGgH CemMigd Congruent left error Normal 1512
19 260 LeftSmaller PercIExp Prime_4N Target_1N AChMJKa ckADgEd Congruent right error Normal 663
19 261 LeftSmaller PercIExp Prime_1A Target_4A kAglFCe agdkDmI Congruent left correct Normal 1931
19 262 LeftSmaller PercIExp Prime_6A Target_4A gIKmjlE gLbGehI Incongruent left error Normal 899
19 263 LeftSmaller PercIExp Prime_6N Target_9A ELBiGcl CGbKmJB Congruent left error Late 5043
19 264 LeftSmaller PercIExp Prime_9N Target_6N kKLiDed ifEhDdJ Congruent left error Normal 877
19 265 LeftSmaller PercIExp Prime_1A Target_9A kDEgiaA dckbgBa Incongruent left correct Normal 2114
19 266 LeftSmaller PercIExp Prime_4A Target_6A JLaDdeA AjGJcEg Incongruent left correct Normal 894
19 267 LeftSmaller PercIExp Prime_1N Target_6N cMAhbiB DIejFLg Incongruent left correct Normal 825
19 268 LeftSmaller PercIExp Prime_1N Target_9N kDFgehJ JhDdmae Incongruent left correct Normal 995
19 269 LeftSmaller PercIExp Prime_1A Target_9N cdKmjkC LiBJKkC Incongruent left correct Normal 623
19 270 LeftSmaller PercIExp Prime_6N Target_6A JhkbaFm LAljdhm Congruent right correct Normal 1056
19 271 LeftSmaller PercIExp Prime_4A Target_4A FIjckia BalfkCg Congruent left correct Normal 709
19 272 LeftSmaller PercIExp Prime_4A Target_9N ijGEbdl CMHgcDJ Incongruent right error Normal 836
20 17 LeftLarger PercIExp Prime_6A Target_9A LhaEfkG fFGMjCd Congruent right error Normal 1024
